BOOT_TIME_EPOCH1688710950070
BOOT_UPTIME_MILLIS 4939973
time, accel_x, accel_y, accel_z
4940084, -3.2465374, 0.9816227, 8.896853
4940094, -3.1555579, 1.0247183, 8.887277
4940104, -3.1411927, 1.0390835, 8.853758
4940114, -3.1555579, 1.0726024, 8.820239
4940124, -3.241749, 1.0726024, 8.772355
4940134, -3.3375173, 1.043872, 8.695741
4940144, -3.4620156, 0.92416185, 8.7053175
4940154, -3.5769374, 0.89064306, 8.652645
4940164, -3.5817258, 0.90021986, 8.671799
4940174, -3.596091, 0.8571242, 8.6813755
4940184, -3.6008794, 0.8475474, 8.700529
4940194, -3.5290532, 0.81881696, 8.7053175
4940204, -3.4955344, 0.81881696, 8.662222
4940214, -3.5003228, 0.90979666, 8.676587
4940223, -3.490746, 0.90979666, 8.623915
4940234, -3.5098996, 0.8523358, 8.619126
4940244, -3.4811692, 0.7038953, 8.614338
4940254, -3.5098996, 0.62728083, 8.7292595
4940264, -3.4572272, 0.5267244, 8.868123
4940273, -3.5051112, 0.4213795, 9.054871
4940284, -3.5913026, 0.320823, 9.188946
4940294, -3.7253778, 0.29688102, 9.394848
4940304, -3.787627, 0.2777274, 9.514558
4940314, -3.892972, 0.2825158, 9.409213
4940324, -3.9312792, 0.21547815, 9.3661175
4940334, -4.0222588, 0.24899697, 9.44752
4940344, -4.084508, 0.22505496, 9.375694
4940354, -4.1036615, 0.2825158, 9.3182335
4940364, -4.1659107, 0.23942018, 9.184157
4940374, -4.122815, 0.23942018, 9.069236
4940385, -4.0701427, 0.24420857, 8.920795
4940396, -4.0414124, 0.2681506, 8.743625
4940404, -4.0462008, 0.24899697, 8.695741
4940414, -4.1180267, 0.2633622, 8.66701
4940424, -4.3957543, 0.24899697, 8.714894
4940434, -4.5537715, 0.090979666, 8.829816
4940444, -5.2959743, 0.062249243, 8.944737
4940453, -4.5920787, 0.33997664, 8.99741
4940464, -4.2904096, 0.1388637, 9.11712
4940474, -4.8027687, 0.090979666, 8.844181
4940483, -4.280833, 0.07182605, 8.561666
4940494, -3.9839516, 0.14844051, 8.676587
4940504, -3.9121256, 0.23463176, 8.8777
4940514, -3.8594532, 0.23463176, 8.844181
4940524, -3.8115692, 0.2777274, 8.738836
4940533, -3.8115692, 0.35913026, 8.829816
4940543, -3.8881836, 0.4309563, 9.054871
4940553, -3.8642416, 0.34955344, 9.097966
4940563, -3.8355112, 0.21068975, 9.141062
4940574, -3.5673606, -0.1388637, 9.375694
4940583, -3.8546648, 0.320823, 9.471462
4940593, -3.7349546, 0.11971009, 9.279925
4940603, -3.7780502, 0.01436521, 9.054871
4940614, -3.7541082, 0.08140286, 8.992621
4940623, -3.6966474, 0.038307227, 9.059659
4940633, -3.763685, 0.07182605, 9.165004
4940643, -3.7924154, 0.06703765, 9.179369
4940654, -3.8546648, 0.11971009, 9.141062
4940664, -3.8594532, 0.10534488, 9.323022
4940673, -3.964798, 0.1436521, 9.5385
4940683, -4.027047, 0.11971009, 9.68694
4940693, -4.027047, 0.062249243, 9.591172
4940704, -3.9456444, 0.10534488, 9.519346
4940713, -3.7205894, 0.15801731, 9.337387
4940724, -3.53863, 0.17238252, 9.078813
4940733, -3.4811692, 0.2873042, 8.973468
4940743, -3.4763808, 0.3878607, 8.925584
4940753, -3.4715924, 0.4165911, 8.805874
4940763, -3.490746, 0.51235914, 8.710106
4940774, -3.5865142, 0.5267244, 8.6574335
4940783, -3.6152446, 0.59376204, 8.676587
4940793, -3.8594532, 0.5746084, 8.686164
4940804, -4.0318356, 0.545878, 8.748413
4940813, -4.098873, 0.56982, 8.690952
4940823, -4.1946416, 0.5746084, 8.743625
4940833, -4.19943, 0.5410896, 8.781932
4940843, -4.1276035, 0.545878, 8.815451
4940853, -4.0222588, 0.49320555, 8.791509
4940863, -3.8977604, 0.45968673, 8.863335
4940873, -3.7684734, 0.47405192, 8.987833
4940883, -3.6727054, 0.4165911, 9.002198
4940893, -3.6487634, 0.41180268, 8.99741
4940904, -3.5817258, 0.36870706, 8.954314
4940913, -3.6104562, 0.29688102, 9.030929
4940923, -3.6822822, 0.272939, 8.992621
4940933, -3.8115692, 0.19153613, 9.093178
4940943, -3.9025488, 0.11492168, 9.059659
4940953, -3.9504328, 0.08619126, 9.165004
4940964, -3.9743748, 0.038307227, 9.212888
4940974, -3.9504328, -0.0047884034, 9.289502
4940984, -3.845088, -0.033518825, 9.313444
4940994, -3.8019924, -0.023942016, 9.3661175
4941005, -3.86903, -0.038307227, 9.399636
4941014, -3.9121256, -0.07182605, 9.41879
4941024, -4.0318356, -0.06703765, 9.3661175
4941034, -4.060566, -0.06703765, 9.275137
4941044, -4.0078936, -0.038307227, 9.251195
4941054, -3.9552212, -0.02873042, 9.155427
4941064, -3.9791632, 0.019153614, 9.112331
4941074, -4.012682, 0.1388637, 8.983045
4941085, -3.940856, 0.18195933, 8.896853
4941094, -3.9264908, 0.25378537, 8.78672
4941105, -3.9264908, 0.2873042, 8.772355
4941114, -3.9264908, 0.30166942, 8.767567
4941124, -3.8881836, 0.30166942, 8.748413
4941134, -3.8977604, 0.32561144, 8.853758
4941144, -3.9264908, 0.33039984, 8.978256
4941154, -3.8738184, 0.36391866, 9.021352
4941165, -3.9025488, 0.3878607, 9.136273
4941175, -3.8977604, 0.36391866, 9.203311
4941185, -4.3766007, 0.47884035, 7.881712
4941194, -4.7022123, 0.4405331, 6.6079965
4941204, -4.4963107, 0.521936, 6.646304
4941214, -3.7110126, 0.46447513, 8.264784
4941224, -3.9839516, 0.37349546, 9.437943
4941234, -4.003105, 0.19632454, 9.758766
4941244, -3.8498764, 0.062249243, 9.715671
4941254, -3.7588966, 0.038307227, 9.706094
4941264, -3.6056678, 0.01436521, 9.65821
4941274, -3.6104562, 0.038307227, 9.576807
4941284, -3.6822822, 0.05746084, 9.471462
4941294, -3.845088, 0.047884032, 9.26556
4941304, -4.0318356, 0.05267244, 9.059659
4941314, -4.261679, 0.023942016, 8.939949
4941324, -4.357447, 0.076614454, 8.820239
4941334, -4.4244847, 0.095768064, 8.805874
4941344, -4.405331, 0.095768064, 8.839393
4941354, -4.3957543, 0.11492168, 8.801085
4941364, -4.3047748, 0.1340753, 8.853758
4941374, -4.1802764, 0.10534488, 8.887277
4941384, -4.036624, 0.076614454, 8.791509
4941394, -3.8738184, 0.08619126, 8.734048
4941404, -3.821146, 0.07182605, 8.647857
4941414, -3.7924154, 0.090979666, 8.595184
4941424, -3.7828386, 0.062249243, 8.599973
4941434, -3.763685, 0.062249243, 8.643068
4941444, -3.787627, 0.04309563, 8.7053175
4941454, -3.7924154, -0.02873042, 8.78672
4941464, -3.8355112, -0.076614454, 8.939949
4941474, -3.8786068, -0.12449849, 9.160215
4941484, -3.8642416, -0.14844051, 9.394848
4941494, -3.8833952, -0.17717093, 9.414001
4941504, -3.9025488, -0.24899697, 9.485827
4941514, -3.940856, -0.21547815, 9.519346
4941524, -3.9217024, -0.24420857, 9.504981
4941534, -4.0222588, -0.23942018, 9.514558
4941544, -4.0557775, -0.20590134, 9.433155
4941554, -4.0462008, -0.16759412, 9.380483
4941564, -4.0078936, -0.1340753, 9.385271
4941574, -4.0318356, -0.11971009, 9.32781
4941584, -3.964798, -0.11971009, 9.241618
4941594, -3.9217024, 0.038307227, 9.212888
4941604, -3.86903, 0.11492168, 9.222465
4941614, -3.7349546, 0.18674773, 9.337387
4941624, -3.6822822, 0.22505496, 9.32781
4941634, -3.6391866, 0.2777274, 9.385271
4941644, -3.5865142, 0.34955344, 9.380483
4941654, -3.6056678, 0.37349546, 9.409213
4941664, -3.5290532, 0.4261679, 9.241618
4941674, -3.5577838, 0.4357447, 9.155427
4941684, -3.4763808, 0.45968673, 9.184157
4941694, -3.5194764, 0.4309563, 9.14585
4941704, -3.5769374, 0.521936, 9.179369
4941714, -3.5338416, 0.51235914, 9.150639
4941724, -3.5482068, 0.5602432, 9.093178
4941734, -3.5242648, 0.5793968, 9.002198
4941745, -3.4811692, 0.5650316, 8.935161
4941754, -3.5098996, 0.58418524, 8.839393
4941765, -3.5194764, 0.59855044, 8.743625
4941774, -3.4524388, 0.63206923, 8.671799
4941785, -3.3997664, 0.6368576, 8.695741
4941794, -3.323152, 0.61291564, 8.686164
4941805, -3.2848446, 0.56982, 8.571242
4941814, -3.2992098, 0.6991069, 8.566454
4941825, -3.3806129, 0.6512229, 8.475474
4941834, -3.6104562, 0.79487497, 8.623915
4941845, -3.6104562, 1.0869676, 8.858546
4941854, -3.5577838, 1.1109096, 8.853758
4941865, -3.5194764, 0.9959879, 8.7053175
4941874, -2.753332, 1.043872, 8.738836
4941885, -2.0685902, 1.7286136, 9.260772
4941894, -2.6001031, 1.4939818, 9.409213
4941905, -2.3223755, 1.1587936, 9.255983
4941914, -2.72939, 0.90979666, 8.901642
4941925, -3.0550013, 0.90021986, 8.647857
4941934, -2.9831753, 0.90979666, 8.743625
4941945, -2.8203697, 1.1683705, 9.088389
4941955, -2.4612393, 1.3263878, 9.289502
4941965, -2.1643584, 1.3072342, 9.504981
4941974, -2.111686, 1.1779473, 9.653421
4941985, -2.3942018, 1.1204864, 9.974244
4941994, -2.6623523, 1.1731589, 10.261548
4942005, -2.954445, 1.0199299, 12.310986
4942014, -3.1172507, 1.0295067, 10.931925
4942025, -3.2513258, 1.4030021, 10.500969
4942034, -2.9592333, 1.3311762, 9.950302
4942045, -2.9257145, 1.3120226, 9.5385
4942054, -2.8874073, 1.2545617, 9.653421
4942065, -3.0262709, 1.13964, 9.68694
4942074, -3.1986535, 0.9576807, 9.528923
4942085, -3.5051112, 0.7422025, 9.308656
4942094, -3.7205894, 0.6751649, 9.337387
4942105, -3.8786068, 0.58418524, 9.332599
4942114, -3.8786068, 0.49320555, 9.3182335
4942125, -3.821146, 0.51235914, 9.346964
4942134, -3.4620156, 0.45489833, 9.332599
4942145, -3.4620156, 0.22984336, 9.299079
4942154, -3.3087866, 0.2681506, 9.303867
4942165, -3.6056678, -0.10055647, 9.332599
4942174, -3.3901896, 0.0047884034, 9.203311
4942185, -3.0358477, 0.23463176, 8.834604
4942194, -2.753332, 0.34476504, 8.494628
4942205, -2.8443117, 0.25378537, 8.288726
4942214, -2.719813, 0.20111294, 8.087613
4942225, -2.719813, 0.14844051, 8.0924015
4942235, -2.8682537, 0.06703765, 8.049306
4942245, -3.1411927, 0.019153614, 7.953538
4942254, -3.3901896, 0.16280572, 7.991845
4942265, -3.6104562, 0.2681506, 7.9822683
4942274, -3.7253778, 0.29209262, 8.030152
4942285, -3.6966474, 0.14844051, 8.058883
4942294, -3.7541082, 0.047884032, 8.322245
4942305, -3.7684734, 0.023942016, 10.223241
4942314, -4.0797195, 0.0047884034, 9.44752
4942325, -4.1515455, -0.06703765, 9.801862
4942334, -3.9983168, -0.02873042, 9.921572
4942345, -3.7014358, -0.15322891, 9.801862
4942355, -3.4763808, -0.15322891, 9.730036
4942365, -3.2273839, -0.062249243, 9.739613
4942374, -3.0358477, -0.08619126, 9.624691
4942385, -3.0119057, -0.1340753, 9.514558
4942394, -3.1364043, -0.05746084, 9.581595
4942405, -3.1986535, -0.05746084, 9.591172
4942414, -3.2034419, 0.033518825, 9.595961
4942425, -3.2465374, 0.076614454, 9.495404
4942434, -3.3183637, 0.1436521, 9.572019
4942445, -3.442862, 0.18195933, 9.533711
4942454, -3.6248214, 0.23463176, 9.548077
4942465, -3.7014358, 0.25857377, 9.495404
4942474, -3.7062242, 0.29688102, 9.504981
4942485, -3.7301662, 0.37828386, 9.409213
4942494, -3.6774938, 0.37828386, 9.3661175
4942505, -3.6535518, 0.40222588, 9.346964
4942514, -3.5482068, 0.4165911, 9.294291
4942525, -3.4524388, 0.4357447, 9.179369
4942534, -3.3518825, 0.47884035, 9.203311
4942545, -3.0789435, 0.35913026, 9.131485
4942554, -3.2082303, 0.6607997, 9.433155
4942565, -3.6727054, 0.7134721, 9.346964
4942574, -3.572149, 0.41180268, 9.260772
4942585, -3.442862, 0.45968673, 9.337387
4942594, -3.442862, 0.521936, 9.399636
4942605, -3.347094, 0.4405331, 9.241618
4942614, -3.2609026, 0.4213795, 9.040505
4942625, -3.1794999, 0.49320555, 9.040505
4942634, -3.217807, 0.47884035, 9.088389
4942645, -3.1794999, 0.46926352, 9.083601
4942654, -3.2082303, 0.46447513, 9.102755
4942665, -3.217807, 0.45968673, 9.083601
4942674, -3.2273839, 0.39743748, 8.983045
4942685, -3.2513258, 0.34955344, 8.90643
4942694, -3.347094, 0.33518824, 8.925584
4942705, -3.4572272, 0.33997664, 8.901642
4942714, -3.5003228, 0.32561144, 8.992621
4942725, -3.5434184, 0.29688102, 9.021352
4942734, -3.5003228, 0.2873042, 9.040505
4942745, -3.5434184, 0.31603462, 9.006987
4942754, -3.5769374, 0.25857377, 9.064447
4942765, -3.6104562, 0.2825158, 8.99741
4942774, -3.6391866, 0.25857377, 9.045294
4942785, -3.6583402, 0.22984336, 9.097966
4942794, -3.6535518, 0.16280572, 9.150639
4942805, -3.6343982, 0.14844051, 9.184157
4942814, -3.6248214, 0.15322891, 9.232041
4942825, -3.5098996, 0.17238252, 9.279925
4942834, -3.4859576, 0.16280572, 9.299079
4942845, -3.4620156, 0.20111294, 9.375694
4942854, -3.41892, 0.18195933, 9.385271
4942865, -3.4093432, 0.20590134, 9.361329
4942875, -3.3662477, 0.21547815, 9.275137
4942885, -3.3806129, 0.272939, 9.23683
4942894, -3.41892, 0.2633622, 9.203311
4942905, -3.490746, 0.21068975, 9.184157
4942914, -3.5673606, 0.24420857, 9.188946
4942925, -3.6535518, 0.25857377, 9.23683
4942934, -3.6583402, 0.2873042, 9.184157
4942945, -3.6152446, 0.25857377, 9.155427
4942954, -3.5529952, 0.2633622, 9.121908
4942965, -3.5338416, 0.23942018, 9.141062
4942974, -3.5098996, 0.23463176, 9.174581
4942985, -3.4045548, 0.22984336, 9.160215
4942994, -3.2800562, 0.22984336, 9.198523
4943005, -3.2752678, 0.25378537, 9.222465
4943014, -3.3039982, 0.30645782, 9.23683
4943025, -3.3518825, 0.2681506, 9.313444
4943034, -3.3901896, 0.32561144, 9.332599
4943045, -3.4476504, 0.25857377, 9.361329
4943054, -3.5482068, 0.23942018, 9.3661175
4943065, -3.5098996, 0.2633622, 9.356541
4943074, -3.4763808, 0.25378537, 9.375694
4943085, -3.466804, 0.2633622, 9.44752
4943094, -3.4620156, 0.30645782, 9.500193
4943105, -3.41892, 0.33039984, 9.361329
4943114, -3.323152, 0.36391866, 9.308656
4943125, -3.2369606, 0.34955344, 9.332599
4943134, -3.265691, 0.39264908, 9.208099
4943145, -3.3614593, 0.38307226, 9.169792
4943155, -3.3806129, 0.40222588, 9.203311
4943165, -3.4045548, 0.40222588, 9.169792
4943174, -3.394978, 0.4213795, 9.054871
4943185, -3.3375173, 0.5267244, 8.959103
4943194, -3.2848446, 0.50757074, 8.848969
4943205, -3.3327289, 0.5793968, 8.868123
4943214, -3.4141316, 0.58418524, 8.815451
4943225, -3.5003228, 0.59855044, 8.805874
4943234, -3.6008794, 0.62728083, 8.75799
4943245, -3.6152446, 0.58897364, 8.791509
4943257, -3.5817258, 0.59376204, 8.844181
4943265, -3.4811692, 0.59376204, 8.853758
4943274, -3.4284968, 0.5793968, 8.949526
4943285, -3.394978, 0.5506664, 9.021352
4943294, -3.3901896, 0.5602432, 9.136273
4943304, -3.3997664, 0.56982, 9.131485
4943314, -3.3901896, 0.49320555, 9.093178
4943325, -3.3566709, 0.5315128, 9.093178
4943334, -3.4141316, 0.521936, 9.141062
4943345, -3.4284968, 0.45968673, 9.227253
4943355, -3.4955344, 0.47405192, 9.23683
4943365, -3.4620156, 0.47405192, 9.279925
4943374, -3.3806129, 0.4261679, 9.284714
4943385, -3.3279405, 0.4261679, 9.279925
4943394, -3.2992098, 0.4405331, 9.279925
4943404, -3.2992098, 0.44532153, 9.284714
4943414, -3.3087866, 0.4261679, 9.289502
4943425, -3.3183637, 0.40222588, 9.26556
4943434, -3.323152, 0.33997664, 9.193734
4943445, -3.394978, 0.38307226, 9.217676
4943455, -3.4715924, 0.29688102, 9.299079
4943465, -3.4859576, 0.30166942, 9.294291
4943474, -3.5290532, 0.30645782, 9.299079
4943485, -3.5482068, 0.2825158, 9.289502
4943494, -3.4859576, 0.31603462, 9.232041
4943504, -3.4715924, 0.2777274, 9.184157
4943514, -3.4476504, 0.30645782, 9.131485
4943525, -3.4284968, 0.29209262, 9.088389
4943535, -3.5098996, 0.21068975, 9.054871
4943545, -3.5242648, 0.19632454, 9.131485
4943554, -3.691859, 0.15322891, 9.193734
4943565, -3.6583402, 0.1388637, 9.289502
4943574, -3.6296098, 0.11971009, 9.337387
4943585, -3.6391866, 0.10534488, 9.361329
4943594, -3.6008794, 0.110133275, 9.332599
4943605, -3.620033, 0.10534488, 9.370906
4943614, -3.6774938, 0.11971009, 9.3182335
4943625, -3.691859, 0.1388637, 9.212888
4943634, -3.667917, 0.095768064, 9.102755
4943645, -3.6535518, 0.11492168, 8.99741
4943654, -3.691859, 0.1340753, 8.992621
4943665, -3.7780502, 0.110133275, 9.069236
4943674, -3.8259344, 0.15801731, 9.107543
4943685, -3.7445314, 0.16280572, 9.074024
4943695, -3.7205894, 0.18674773, 9.102755
4943704, -3.6966474, 0.24899697, 9.030929
4943715, -3.715801, 0.23942018, 9.150639
4943725, -3.8402996, 0.25857377, 9.232041
4943734, -3.8259344, 0.2681506, 9.26556
4943745, -3.86903, 0.34955344, 9.169792
4943754, -3.8163576, 0.38307226, 9.112331
4943765, -3.763685, 0.44532153, 9.198523
4943775, -3.6631286, 0.50278234, 9.198523
4943785, -3.5098996, 0.51235914, 9.083601
4943794, -3.3806129, 0.5410896, 8.959103
4943804, -3.2944214, 0.61291564, 8.863335
4943814, -3.2513258, 0.61770403, 8.944737
4943825, -3.2704794, 0.7422025, 9.045294
4943834, -3.4237084, 0.7278373, 9.279925
4943845, -3.5194764, 0.6368576, 9.332599
4943855, -3.5290532, 0.58418524, 9.44752
4943865, -3.5529952, 0.5554548, 9.471462
4943874, -3.4332852, 0.50757074, 9.452309
4943884, -3.466804, 0.4357447, 9.500193
4943894, -3.4955344, 0.24899697, 9.624691
4943905, -3.5242648, 0.19632454, 9.634268
4943915, -3.5338416, 0.24899697, 9.610326
4943925, -3.4237084, 0.009576807, 9.44752
4943934, -3.490746, -0.090979666, 9.461885
4943945, -3.6631286, -0.17238252, 9.490616
4943954, -3.643975, -0.22984336, 9.361329
4943965, -3.5194764, -0.22026655, 9.069236
4943975, -3.4237084, -0.18195933, 8.901642
4943984, -3.3854012, -0.21068975, 8.839393
4943994, -3.4380736, -0.1388637, 8.839393
4944005, -3.4380736, -0.12449849, 8.781932
4944015, -3.4524388, -0.076614454, 8.652645
4944025, -3.5769374, -0.05267244, 8.552089
4944034, -3.7110126, -0.11971009, 8.604761
4944045, -4.0701427, -0.01436521, 8.7771435
4944054, -3.8259344, -0.16280572, 8.719683
4944065, -3.8594532, -0.16759412, 8.724471
4944074, -3.8546648, 0.11492168, 8.901642
4944085, -3.5625722, 0.25378537, 8.901642
4944094, -3.3854012, 0.21547815, 8.791509
4944104, -3.3854012, 0.2777274, 8.825027
4944114, -3.4380736, 0.33039984, 9.035717
4944125, -3.572149, 0.36870706, 9.232041
4944135, -3.5051112, 0.4165911, 9.495404
4944145, -3.466804, 0.45489833, 9.710882
4944154, -3.289633, 0.45010993, 9.811439
4944165, -3.1124623, 0.4405331, 10.19451
4944174, -3.0885203, 0.5602432, 10.065224
4944185, -2.7341783, 0.3878607, 9.9790325
4944194, -2.7006595, 0.45010993, 9.77792
4944205, -2.6479871, 0.46926352, 9.720459
4944214, -2.6431987, 0.4213795, 9.648633
4944225, -2.743755, 0.41180268, 9.490616
4944235, -2.7389667, 0.47405192, 9.404425
4944245, -2.8682537, 0.46447513, 9.461885
4944254, -2.9352913, 0.47405192, 9.414001
4944265, -3.064578, 0.49320555, 9.337387
4944274, -3.1842883, 0.5410896, 9.337387
4944285, -3.2609026, 0.58897364, 9.32781
4944294, -3.265691, 0.6943185, 9.3182335
4944304, -3.2273839, 0.7086837, 9.260772
4944314, -3.169923, 0.79008657, 9.169792
4944324, -2.9496565, 0.8475474, 9.102755
4944335, -2.873042, 0.8475474, 9.030929
4944345, -2.8395233, 0.8571242, 8.944737
4944355, -2.920926, 0.90500826, 8.882488
4944365, -3.0310593, 0.89543146, 8.896853
4944375, -3.193865, 0.866701, 8.920795
4944385, -3.2561142, 0.8619126, 8.868123
4944395, -3.289633, 0.8810662, 8.829816
4944405, -3.2800562, 0.8810662, 8.6813755
4944415, -3.3614593, 0.8810662, 8.614338
4944425, -3.3758245, 0.9576807, 8.556877
4944435, -3.4093432, 0.90979666, 8.6334915
4944445, -3.4955344, 0.9816227, 8.619126
4944455, -3.5242648, 0.8714894, 8.590396
4944465, -3.6008794, 0.8283938, 8.652645
4944475, -3.490746, 0.8379706, 8.623915
4944485, -3.4620156, 0.79966336, 8.576031
4944495, -3.3806129, 0.79008657, 8.571242
4944505, -3.2704794, 0.7565677, 8.66701
4944515, -3.0933087, 0.6991069, 8.6574335
4944525, -2.9879637, 0.7086837, 8.6574335
4944535, -2.9352913, 0.7326257, 8.748413
4944545, -2.9783869, 0.6607997, 9.050082
4944555, -3.0023289, 0.62728083, 9.3182335
4944565, -2.9640217, 0.6607997, 9.313444
4944575, -2.9496565, 0.6607997, 9.289502
4944585, -2.8443117, 0.60812724, 9.351752
4944595, -2.719813, 0.61291564, 9.303867
4944605, -2.6384103, 0.5506664, 9.385271
4944615, -2.6240451, 0.50278234, 9.504981
4944625, -2.5091233, 0.50757074, 9.610326
4944635, -2.3942018, 0.545878, 9.662998
4944645, -2.3175871, 0.59376204, 9.773131
4944655, -2.2170308, 0.6847417, 9.888053
4944665, -2.1308396, 0.6368576, 10.0269165
4944675, -2.1930888, 0.2825158, 10.338163
4944684, -2.1499932, 1.2114661, 10.5919485
4944694, -2.135628, 0.8810662, 10.0748005
4944704, -1.8531121, 0.6655881, 9.931149
4944715, -1.7717092, 0.8475474, 9.9790325
4944725, -1.9249382, 0.8475474, 9.739613
4944735, -2.0685902, 0.6943185, 9.667787
4944745, -2.3127987, 0.58418524, 9.77792
4944755, -2.504335, 0.48362875, 9.92636
4944765, -2.681506, 0.41180268, 10.0748005
4944775, -2.8107927, 0.31124622, 10.218452
4944785, -2.9161377, 0.23463176, 10.261548
4944795, -2.8682537, 0.17717093, 10.261548
4944805, -2.801216, 0.18674773, 10.271125
4944815, -2.873042, 0.090979666, 10.146626
4944825, -2.873042, 0.05746084, 9.931149
4944835, -2.882619, 0.009576807, 9.840169
4944845, -3.016694, -0.062249243, 9.734824
4944855, -3.122039, -0.15322891, 9.744401
4944865, -3.241749, -0.23942018, 9.720459
4944875, -3.2848446, -0.2825158, 9.68694
4944885, -3.3566709, -0.29209262, 9.591172
4944895, -3.3614593, -0.31124622, 9.572019
4944905, -3.4284968, -0.33997664, 9.581595
4944915, -3.4811692, -0.34476504, 9.514558
4944925, -3.4715924, -0.31603462, 9.3661175
4944935, -3.5098996, -0.29209262, 9.246407
4944945, -3.514688, -0.30166942, 9.160215
4944955, -3.572149, -0.24420857, 9.069236
4944965, -3.6056678, -0.21068975, 8.944737
4944975, -3.596091, -0.1340753, 8.858546
4944985, -3.6822822, -0.095768064, 8.686164
4944995, -3.691859, -0.019153614, 8.485051
4945005, -3.6870706, 0.095768064, 8.37013
4945015, -3.7301662, 0.076614454, 8.283937
4945025, -3.7205894, 0.16759412, 8.303091
4945035, -3.7493198, 0.18674773, 8.264784
4945045, -3.7349546, 0.32561144, 8.365341
4945055, -3.7062242, 0.39743748, 8.465898
4945065, -3.5673606, 0.521936, 8.379706
4945075, -3.5338416, 0.5506664, 8.350976
4945085, -3.5434184, 0.59376204, 8.341399
4945095, -3.6152446, 0.6703765, 8.350976
4945105, -3.5913026, 0.60812724, 8.327033
4945115, -3.715801, 0.59855044, 8.389283
4945125, -3.86903, 0.58897364, 8.623915
4945135, -3.7014358, 0.48362875, 8.643068
4945145, -3.964798, 0.5746084, 8.604761
4945155, -4.0462008, 0.50757074, 8.614338
4945165, -3.9743748, 0.4405331, 8.6095495
4945175, -3.9839516, 0.3878607, 8.561666
4945185, -4.027047, 0.23942018, 8.743625
4945195, -4.0318356, 0.16280572, 8.90643
4945205, -4.122815, 0.019153614, 9.083601
4945215, -4.1611223, -0.10534488, 9.227253
4945225, -4.146757, -0.20590134, 9.346964
4945235, -4.1371803, -0.22026655, 9.380483
4945245, -4.1659107, -0.29209262, 9.41879
4945255, -4.1659107, -0.35434186, 9.404425
4945265, -4.2185836, -0.4357447, 9.3182335
4945275, -4.247314, -0.5506664, 9.299079
4945285, -4.3143516, -0.61291564, 9.452309
4945295, -4.3861775, -0.641646, 9.476251
4945305, -4.5202527, -0.7134721, 9.428367
4945315, -4.5058875, -0.7565677, 9.404425
4945325, -4.4819455, -0.79487497, 9.370906
4945335, -4.357447, -0.78050977, 9.399636
4945345, -4.209007, -0.81402856, 9.260772
4945355, -4.036624, -0.7565677, 9.050082
4945365, -4.1180267, -0.6943185, 8.920795
4945375, -4.256891, -0.6991069, 8.863335
4945385, -4.405331, -0.6512229, 8.844181
4945395, -4.4915223, -0.6655881, 8.801085
4945405, -4.582502, -0.59855044, 8.78672
4945415, -4.606444, -0.5363012, 8.6813755
4945425, -4.654328, -0.45968673, 8.6813755
4945435, -4.7309427, -0.46926352, 8.6334915
4945445, -4.697424, -0.45010993, 8.523358
4945455, -4.8123455, -0.4213795, 8.494628
4945465, -4.793192, -0.39264908, 8.475474
4945475, -4.7644615, -0.37349546, 8.485051
4945485, -4.697424, -0.37828386, 8.485051
4945495, -4.6399627, -0.40222588, 8.552089
4945505, -4.55856, -0.39743748, 8.580819
4945515, -4.548983, -0.38307226, 8.6095495
4945525, -4.4963107, -0.36870706, 8.6574335
4945535, -4.462792, -0.34955344, 8.671799
4945545, -4.462792, -0.34955344, 8.619126
4945555, -4.486734, -0.37349546, 8.614338
4945565, -4.4484267, -0.33518824, 8.676587
4945575, -4.4723687, -0.2633622, 8.7292595
4945585, -4.486734, -0.25857377, 8.805874
4945595, -4.4340615, -0.24420857, 8.8777
4945605, -4.3478703, -0.19153613, 8.858546
4945615, -4.414908, -0.18674773, 8.882488
4945625, -4.3718123, -0.21547815, 8.829816
4945635, -4.381389, -0.21068975, 8.7053175
4945645, -4.381389, -0.19153613, 8.719683
4945655, -4.295198, -0.17238252, 8.556877
4945665, -4.2281604, -0.17238252, 8.48984
4945675, -4.132392, -0.12928689, 8.446744
4945685, -4.0557775, -0.12928689, 8.350976
4945695, -4.0557775, -0.11492168, 8.408437
4945705, -4.0462008, -0.18674773, 8.42759
4945715, -4.0078936, -0.17717093, 8.456321
4945725, -4.1036615, -0.17717093, 8.494628
4945735, -4.189853, -0.18674773, 8.528147
4945745, -4.2664676, -0.21547815, 8.5473
4945755, -4.381389, -0.31603462, 8.710106
4945765, -4.462792, -0.33997664, 8.920795
4945775, -4.5058875, -0.40701428, 9.083601
4945785, -4.4915223, -0.40701428, 9.198523
4945795, -4.4436383, -0.4261679, 9.303867
4945805, -4.3382936, -0.49320555, 9.3421755
4945815, -4.2904096, -0.46926352, 9.351752
4945825, -4.2042184, -0.44532153, 9.3661175
4945835, -4.237737, -0.4405331, 9.399636
4945845, -4.209007, -0.46926352, 9.370906
4945855, -4.1611223, -0.49799395, 9.346964
4945865, -4.1515455, -0.50757074, 9.303867
4945875, -4.1659107, -0.48841715, 9.361329
4945885, -4.1515455, -0.45968673, 9.279925
4945895, -4.1515455, -0.4261679, 9.227253
4945905, -4.209007, -0.3878607, 9.150639
4945915, -4.2281604, -0.34955344, 9.078813
4945925, -4.256891, -0.33518824, 8.992621
4945935, -4.256891, -0.25378537, 8.853758
4945945, -4.247314, -0.24899697, 8.743625
4945955, -4.1706996, -0.29209262, 8.738836
4945965, -4.146757, -0.25857377, 8.6813755
4945975, -4.050989, -0.16759412, 8.6095495
4945985, -4.074931, -0.19153613, 8.614338
4945995, -4.10845, -0.18195933, 8.619126
4946005, -4.1419687, -0.16759412, 8.719683
4946015, -4.1946416, -0.1388637, 8.7532015
4946025, -4.237737, -0.16759412, 8.671799
4946035, -4.247314, -0.12928689, 8.619126
4946045, -4.2760444, -0.12928689, 8.556877
4946055, -4.285621, -0.1388637, 8.595184
4946065, -4.333505, -0.1340753, 8.595184
4946075, -4.3478703, -0.12449849, 8.576031
4946085, -4.295198, -0.11492168, 8.513782
4946095, -4.285621, -0.11971009, 8.51857
4946105, -4.2185836, -0.1436521, 8.542512
4946115, -4.2425256, -0.110133275, 8.6095495
4946125, -4.2042184, -0.1436521, 8.556877
4946135, -4.223372, -0.17717093, 8.528147
4946145, -4.2999864, -0.17238252, 8.508993
4946155, -4.3382936, -0.21068975, 8.513782
4946165, -4.3478703, -0.24899697, 8.5473
4946175, -4.405331, -0.2681506, 8.652645
4946185, -4.4005427, -0.31124622, 8.695741
4946195, -4.4005427, -0.35434186, 8.676587
4946205, -4.4101195, -0.35913026, 8.868123
4946215, -4.462792, -0.40701428, 8.916007
4946225, -4.4244847, -0.39743748, 9.045294
4946235, -4.3957543, -0.38307226, 9.016563
4946245, -4.3957543, -0.4405331, 8.983045
4946255, -4.3766007, -0.4261679, 9.002198
4946265, -4.3622355, -0.48362875, 8.90643
4946275, -4.390966, -0.5410896, 8.762778
4946285, -4.429273, -0.5315128, 8.700529
4946295, -4.5058875, -0.5506664, 8.671799
4946305, -4.55856, -0.60333884, 8.690952
4946315, -4.5298295, -0.58897364, 8.710106
4946325, -4.5202527, -0.6368576, 8.700529
4946335, -4.5681367, -0.59376204, 8.738836
4946345, -4.5872903, -0.641646, 8.7532015
4946355, -4.6255975, -0.6703765, 8.815451
4946365, -4.630386, -0.6751649, 8.901642
4946375, -4.673482, -0.6512229, 8.801085
4946385, -4.687847, -0.6799533, 8.7771435
4946395, -4.6926355, -0.7038953, 8.686164
4946405, -4.697424, -0.7086837, 8.619126
4946415, -4.7788267, -0.7182605, 8.595184
4946425, -4.8027687, -0.6943185, 8.51857
4946435, -4.831499, -0.6655881, 8.494628
4946445, -4.865018, -0.6847417, 8.532935
4946455, -4.865018, -0.6703765, 8.599973
4946465, -4.807557, -0.6607997, 8.652645
4946475, -4.7405195, -0.6512229, 8.619126
4946485, -4.6782703, -0.6512229, 8.561666
4946495, -4.606444, -0.62728083, 8.461109
4946505, -4.5633483, -0.60333884, 8.480263
4946515, -4.630386, -0.62249243, 8.508993
4946525, -4.687847, -0.6607997, 8.475474
4946535, -4.759673, -0.6464345, 8.532935
4946545, -4.721366, -0.6368576, 8.532935
4946555, -4.793192, -0.59855044, 8.528147
4946565, -4.817134, -0.6655881, 8.542512
4946575, -4.793192, -0.62249243, 8.566454
4946585, -4.7740383, -0.6368576, 8.590396
4946595, -4.7070007, -0.6560113, 8.63828
4946605, -4.6830587, -0.6512229, 8.595184
4946615, -4.5537715, -0.6751649, 8.542512
4946625, -4.5633483, -0.6751649, 8.513782
4946635, -4.510676, -0.6607997, 8.595184
4946645, -4.5681367, -0.6560113, 8.604761
4946655, -4.606444, -0.62728083, 8.513782
4946665, -4.6351743, -0.6368576, 8.5473
4946675, -4.7309427, -0.6799533, 8.66701
4946685, -4.7500963, -0.6751649, 8.676587
4946695, -4.6926355, -0.6895301, 8.647857
4946705, -4.6351743, -0.6847417, 8.676587
4946715, -4.6112323, -0.7134721, 8.700529
4946725, -4.6016555, -0.6991069, 8.738836
4946735, -4.582502, -0.6991069, 8.772355
4946745, -4.5441947, -0.7086837, 8.834604
4946755, -4.572925, -0.7565677, 8.858546
4946765, -4.620809, -0.7230489, 8.829816
4946775, -4.6926355, -0.7661445, 8.858546
4946785, -4.721366, -0.7469909, 8.896853
4946795, -4.6926355, -0.770933, 8.839393
4946805, -4.596867, -0.7661445, 9.313444
4946814, -4.5202527, -0.7757214, 9.169792
4946824, -4.4580035, -0.7038953, 8.724471
4946834, -4.3718123, -0.59855044, 8.690952
4946844, -4.381389, -0.5650316, 8.595184
4946854, -4.4819455, -0.641646, 8.432379
4946864, -4.6926355, -0.7038953, 8.37013
4946874, -4.7548847, -0.7613561, 8.293514
4946885, -4.903325, -0.78050977, 8.384495
4946894, -5.023035, -0.79487497, 8.42759
4946904, -5.085284, -0.80924016, 8.542512
4946914, -4.9943047, -0.7517793, 8.523358
4946924, -4.855441, -0.7374141, 8.580819
4946934, -4.8219223, -0.6847417, 8.556877
4946944, -4.783615, -0.7038953, 8.599973
4946954, -4.7070007, -0.6847417, 8.537724
4946964, -4.7405195, -0.6799533, 8.532935
4946974, -4.7644615, -0.6560113, 8.542512
4946985, -4.7261543, -0.641646, 8.504205
4946994, -4.7070007, -0.6464345, 8.437167
4947004, -4.759673, -0.6560113, 8.360553
4947014, -4.8027687, -0.60333884, 8.322245
4947024, -4.7979803, -0.61770403, 8.307879
4947034, -4.783615, -0.62249243, 8.240842
4947044, -4.831499, -0.62249243, 8.288726
4947054, -4.8458643, -0.6703765, 8.264784
4947064, -4.8841715, -0.7134721, 8.327033
4947074, -4.9320555, -0.6991069, 8.360553
4947084, -4.865018, -0.7230489, 8.446744
4947094, -4.7884035, -0.7326257, 8.480263
4947104, -4.721366, -0.7182605, 8.585608
4947114, -4.6255975, -0.770933, 8.585608
4947124, -4.630386, -0.7086837, 8.580819
4947134, -4.654328, -0.7565677, 8.66701
4947144, -4.6926355, -0.8283938, 8.75799
4947154, -4.793192, -0.8810662, 8.805874
4947164, -4.8698063, -0.8714894, 8.858546
4947174, -4.8745947, -0.90021986, 8.896853
4947184, -4.8506527, -0.8571242, 8.892065
4947194, -4.7405195, -0.8475474, 8.90643
4947204, -4.7070007, -0.8475474, 8.896853
4947214, -4.6782703, -0.866701, 8.882488
4947224, -4.6782703, -0.82360536, 8.868123
4947234, -4.6495395, -0.842759, 8.78672
4947244, -4.6830587, -0.7757214, 8.571242
4947254, -4.783615, -0.79008657, 8.475474
4947264, -4.7979803, -0.80445176, 8.499416
4947274, -4.9081135, -0.82360536, 8.513782
4947284, -4.8841715, -0.7613561, 8.552089
4947294, -4.9224787, -0.7086837, 8.599973
4947304, -4.8506527, -0.6751649, 8.566454
4947314, -4.7740383, -0.59855044, 8.599973
4947324, -4.644751, -0.5363012, 8.494628
4947334, -4.5777135, -0.48841715, 8.437167
4947344, -4.501099, -0.47405192, 8.408437
4947354, -4.4963107, -0.46926352, 8.441956
4947368, -4.4963107, -0.4357447, 8.528147
4947374, -4.429273, -0.50757074, 8.537724
4947384, -4.462792, -0.45489833, 8.528147
4947394, -4.4484267, -0.45489833, 8.623915
4947404, -4.486734, -0.4165911, 8.719683
4947415, -4.4196963, -0.36870706, 8.686164
4947424, -4.3718123, -0.37828386, 8.710106
4947434, -4.367024, -0.37349546, 8.700529
4947444, -4.429273, -0.40701428, 8.695741
4947454, -4.390966, -0.35913026, 8.78672
4947464, -4.3861775, -0.33039984, 8.719683
4947474, -4.381389, -0.33039984, 8.66701
4947484, -4.381389, -0.272939, 8.676587
4947494, -4.3382936, -0.33039984, 8.676587
4947504, -4.3287168, -0.320823, 8.643068
4947516, -4.3143516, -0.320823, 8.748413
4947524, -4.2760444, -0.31603462, 8.78672
4947534, -4.237737, -0.32561144, 8.710106
4947544, -4.223372, -0.33039984, 8.6813755
4947554, -4.2521024, -0.34476504, 8.791509
4947566, -4.1802764, -0.34955344, 8.863335
4947574, -4.185065, -0.34955344, 8.901642
4947584, -4.19943, -0.37349546, 8.920795
4947594, -4.247314, -0.3878607, 8.90643
4947604, -4.3047748, -0.40222588, 8.805874
4947615, -4.381389, -0.3878607, 8.748413
4947624, -4.429273, -0.3878607, 8.647857
4947634, -4.5202527, -0.45010993, 8.595184
4947644, -4.5394063, -0.46926352, 8.614338
4947654, -4.5920787, -0.46447513, 8.676587
4947665, -4.548983, -0.48841715, 8.834604
4947674, -4.5441947, -0.51714754, 8.901642
4947684, -4.501099, -0.521936, 8.944737
4947694, -4.4244847, -0.47884035, 8.872911
4947704, -4.3478703, -0.47884035, 8.834604
4947715, -4.3526587, -0.51714754, 8.700529
4947724, -4.429273, -0.47884035, 8.75799
4947734, -4.462792, -0.5363012, 8.7292595
4947744, -4.4484267, -0.48841715, 8.686164
4947754, -4.462792, -0.5506664, 8.710106
4947765, -4.4484267, -0.49320555, 8.662222
4947774, -4.405331, -0.51235914, 8.686164
4947784, -4.414908, -0.5410896, 8.714894
4947794, -4.477157, -0.5410896, 8.781932
4947804, -4.5202527, -0.51714754, 8.767567
4947815, -4.486734, -0.50278234, 8.748413
4947824, -4.510676, -0.521936, 8.714894
4947834, -4.4723687, -0.521936, 8.6574335
4947844, -4.548983, -0.48841715, 8.662222
4947854, -4.501099, -0.521936, 8.63828
4947865, -4.501099, -0.45489833, 8.504205
4947874, -4.4101195, -0.47405192, 8.566454
4947884, -4.4196963, -0.50757074, 8.604761
4947894, -4.3526587, -0.5410896, 8.662222
4947904, -4.405331, -0.5506664, 8.719683
4947915, -4.3957543, -0.60333884, 8.916007
4947924, -4.3718123, -0.58897364, 9.083601
4947934, -4.357447, -0.62249243, 9.097966
4947944, -4.4005427, -0.6368576, 9.069236
4947954, -4.405331, -0.641646, 9.02614
4947965, -4.390966, -0.62249243, 8.90643
4947974, -4.4244847, -0.62728083, 8.829816
4947984, -4.4005427, -0.62728083, 8.738836
4947994, -4.4484267, -0.60812724, 8.590396
4948004, -4.525041, -0.5746084, 8.556877
4948015, -4.5920787, -0.5602432, 8.528147
4948024, -4.6160207, -0.56982, 8.485051
4948034, -4.6160207, -0.5650316, 8.432379
4948044, -4.5920787, -0.5650316, 8.485051
4948054, -4.5394063, -0.5506664, 8.595184
4948065, -4.4436383, -0.60812724, 8.643068
4948074, -4.3957543, -0.56982, 8.748413
4948084, -4.295198, -0.5650316, 8.882488
4948094, -4.285621, -0.56982, 8.90643
4948104, -4.271256, -0.58897364, 9.011775
4948114, -4.261679, -0.59855044, 9.141062
4948124, -4.237737, -0.6607997, 9.126697
4948134, -4.2664676, -0.59855044, 9.126697
4948144, -4.2664676, -0.6368576, 9.054871
4948154, -4.209007, -0.6464345, 9.121908
4948164, -4.2521024, -0.6895301, 9.155427
4948174, -4.261679, -0.62728083, 9.279925
4948184, -4.247314, -0.7134721, 9.528923
4948194, -4.036624, -0.7661445, 10.16578
4948204, -3.9073372, -0.6991069, 10.156203
4948215, -4.1180267, -0.59855044, 9.591172
4948224, -4.295198, -0.5506664, 9.188946
4948234, -4.4915223, -0.521936, 8.772355
4948244, -4.6495395, -0.48841715, 8.461109
4948254, -4.7165775, -0.4405331, 8.250419
4948264, -4.7165775, -0.37828386, 8.135497
4948274, -4.7261543, -0.38307226, 7.9487495
4948284, -4.687847, -0.33039984, 7.8865004
4948294, -4.6926355, -0.30645782, 7.8290396
4948304, -4.6591167, -0.31124622, 7.8050976
4948314, -4.6782703, -0.2681506, 7.843405
4948325, -4.55856, -0.22026655, 7.8625584
4948334, -4.4675803, -0.23463176, 7.991845
4948344, -4.5058875, -0.22026655, 8.1402855
4948354, -4.510676, -0.19153613, 8.288726
4948364, -4.4963107, -0.19632454, 8.413225
4948375, -4.4244847, -0.24420857, 8.5473
4948385, -4.390966, -0.29209262, 8.714894
4948395, -4.2425256, -0.25857377, 8.844181
4948405, -4.122815, -0.31124622, 8.968679
4948414, -4.027047, -0.2777274, 9.054871
4948425, -3.8881836, -0.2873042, 9.136273
4948435, -3.8402996, -0.29209262, 9.198523
4948445, -3.8786068, -0.2825158, 9.198523
4948454, -3.9264908, -0.2777274, 9.184157
4948464, -3.9791632, -0.2777274, 9.150639
4948475, -4.0892963, -0.33518824, 9.11712
4948485, -4.189853, -0.30166942, 9.193734
4948495, -4.2999864, -0.36870706, 9.14585
4948505, -4.381389, -0.36870706, 9.136273
4948515, -4.381389, -0.39743748, 9.160215
4948525, -4.3287168, -0.39264908, 9.14585
4948535, -4.2521024, -0.3878607, 9.078813
4948544, -4.185065, -0.33997664, 9.030929
4948555, -4.1180267, -0.33518824, 8.949526
4948564, -4.0557775, -0.29688102, 8.983045
4948575, -3.9935284, -0.272939, 8.963891
4948585, -3.9983168, -0.29688102, 8.978256
4948595, -4.0653543, -0.23463176, 9.059659
4948605, -4.1371803, -0.22984336, 9.112331
4948614, -4.146757, -0.25378537, 9.160215
4948625, -4.1802764, -0.2633622, 9.102755
4948635, -4.2281604, -0.25378537, 9.016563
4948644, -4.2760444, -0.25378537, 9.030929
4948655, -4.2999864, -0.29209262, 8.968679
4948664, -4.2760444, -0.25857377, 8.944737
4948674, -4.2281604, -0.21547815, 8.920795
4948684, -4.0414124, -0.22026655, 8.99741
4948694, -3.9695864, -0.1340753, 8.892065
4948704, -3.9504328, -0.07182605, 8.916007
4948714, -3.9504328, -0.090979666, 8.882488
4948724, -3.9552212, -0.062249243, 8.844181
4948734, -4.060566, -0.038307227, 8.882488
4948744, -4.060566, -0.038307227, 8.848969
4948754, -4.1802764, 0.01436521, 8.796297
4948764, -4.2042184, 0.033518825, 8.7053175
4948775, -4.19943, 0.033518825, 8.614338
4948784, -4.2760444, 0.033518825, 8.662222
4948794, -4.185065, 0.06703765, 8.676587
4948805, -4.132392, 0.04309563, 8.6574335
4948815, -4.0653543, 0.038307227, 8.652645
4948825, -4.0557775, 0.01436521, 8.662222
4948835, -4.0174704, 0.023942016, 8.6334915
4948845, -4.0797195, 0.023942016, 8.66701
4948855, -4.0414124, 0.047884032, 8.662222
4948865, -4.084508, -0.01436521, 8.576031
4948875, -4.1611223, -0.047884032, 8.499416
4948885, -4.232949, -0.038307227, 8.513782
4948895, -4.2760444, -0.06703765, 8.5473
4948905, -4.4101195, -0.12449849, 8.695741
4948915, -4.4340615, -0.12449849, 8.738836
4948925, -4.4101195, -0.14844051, 8.853758
4948935, -4.381389, -0.12449849, 8.916007
4948945, -4.2999864, -0.08619126, 8.920795
4948955, -4.209007, -0.10055647, 8.963891
4948965, -4.2185836, -0.15322891, 8.959103
4948975, -4.189853, -0.20111294, 8.920795
4948985, -4.237737, -0.22026655, 8.987833
4948995, -4.2999864, -0.25857377, 9.045294
4949005, -4.3526587, -0.29688102, 9.064447
4949015, -4.367024, -0.2825158, 9.016563
4949025, -4.357447, -0.320823, 8.935161
4949035, -4.3382936, -0.2681506, 8.930372
4949045, -4.271256, -0.2825158, 8.887277
4949055, -4.2281604, -0.33039984, 8.781932
4949065, -4.185065, -0.30166942, 8.7771435
4949075, -4.1659107, -0.2777274, 8.767567
4949085, -4.146757, -0.33518824, 8.7532015
4949095, -4.1706996, -0.30645782, 8.734048
4949105, -4.2042184, -0.29209262, 8.690952
4949115, -4.223372, -0.2825158, 8.7053175
4949125, -4.280833, -0.25378537, 8.734048
4949135, -4.309563, -0.24899697, 8.724471
4949145, -4.3526587, -0.23942018, 8.738836
4949155, -4.381389, -0.19632454, 8.772355
4949165, -4.357447, -0.21068975, 8.834604
4949175, -4.2999864, -0.18674773, 8.911219
4949185, -4.232949, -0.20590134, 8.901642
4949195, -4.132392, -0.21068975, 8.911219
4949205, -4.074931, -0.22984336, 8.916007
4949215, -4.060566, -0.24899697, 8.973468
4949225, -4.012682, -0.2873042, 8.963891
4949235, -4.0222588, -0.2825158, 9.021352
4949245, -4.074931, -0.29688102, 9.035717
4949255, -4.2042184, -0.29688102, 9.107543
4949265, -4.2425256, -0.31603462, 9.064447
4949275, -4.295198, -0.35913026, 9.069236
4949285, -4.256891, -0.31124622, 9.102755
4949295, -4.2425256, -0.2873042, 9.131485
4949305, -4.189853, -0.2777274, 9.045294
4949315, -4.1132383, -0.24420857, 9.030929
4949325, -4.1036615, -0.22505496, 8.978256
4949335, -4.084508, -0.22505496, 8.949526
4949345, -4.1706996, -0.21547815, 8.935161
4949355, -4.247314, -0.19153613, 8.8777
4949365, -4.295198, -0.18674773, 8.78672
4949375, -4.280833, -0.18674773, 8.738836
4949385, -4.2185836, -0.20111294, 8.748413
4949395, -4.247314, -0.19153613, 8.743625
4949405, -4.2425256, -0.19632454, 8.738836
4949415, -4.2281604, -0.16759412, 8.820239
4949425, -4.1946416, -0.19153613, 8.78672
4949435, -4.1706996, -0.18674773, 8.7532015
4949445, -4.1276035, -0.21547815, 8.738836
4949455, -4.156334, -0.20111294, 8.767567
4949465, -4.237737, -0.20111294, 8.805874
4949475, -4.2521024, -0.19153613, 8.882488
4949485, -4.2904096, -0.24420857, 8.90643
4949495, -4.3239284, -0.22984336, 8.863335
4949505, -4.3143516, -0.21068975, 8.820239
4949515, -4.3143516, -0.23463176, 8.848969
4949525, -4.3143516, -0.24899697, 8.78672
4949535, -4.3143516, -0.22026655, 8.7532015
4949545, -4.2521024, -0.19153613, 8.719683
4949555, -4.2185836, -0.20590134, 8.714894
4949565, -4.1802764, -0.18674773, 8.748413
4949575, -4.189853, -0.17717093, 8.858546
4949585, -4.256891, -0.16759412, 8.920795
4949595, -4.2664676, -0.12449849, 8.863335
4949605, -4.2521024, -0.14844051, 8.815451
4949615, -4.2425256, -0.19632454, 8.714894
4949625, -4.232949, -0.22026655, 8.7053175
4949635, -4.1946416, -0.25857377, 8.676587
4949645, -4.1659107, -0.2777274, 8.714894
4949655, -4.0892963, -0.2681506, 8.805874
4949665, -4.084508, -0.25857377, 8.901642
4949675, -4.074931, -0.22505496, 8.8777
4949685, -4.0462008, -0.23942018, 8.853758
4949695, -4.175488, -0.1436521, 8.872911
4949705, -4.2760444, -0.19153613, 8.844181
4949715, -4.367024, -0.22026655, 8.872911
4949725, -4.3047748, -0.20590134, 8.810662
4949735, -4.237737, -0.23942018, 8.767567
4949745, -4.156334, -0.25857377, 8.762778
4949755, -4.0462008, -0.22026655, 8.762778
4949765, -3.964798, -0.21547815, 8.700529
4949775, -4.050989, -0.21547815, 8.714894
4949785, -4.0653543, -0.2681506, 8.801085
4949795, -4.1802764, -0.2777274, 8.978256
4949805, -4.2999864, -0.31124622, 9.054871
4949815, -4.3622355, -0.30166942, 9.050082
4949825, -4.381389, -0.36391866, 9.030929
4949835, -4.4244847, -0.39264908, 9.040505
4949845, -4.414908, -0.4261679, 9.030929
4949855, -4.4244847, -0.44532153, 9.083601
4949865, -4.4196963, -0.46926352, 9.107543
4949875, -4.405331, -0.50278234, 9.069236
4949885, -4.405331, -0.49320555, 9.136273
4949895, -4.390966, -0.5363012, 9.227253
4949905, -4.4244847, -0.50757074, 9.251195
4949915, -4.43885, -0.48362875, 9.203311
4949925, -4.381389, -0.4357447, 9.083601
4949935, -4.343082, -0.40701428, 9.002198
4949945, -4.2999864, -0.41180268, 8.7292595
4949955, -4.2042184, -0.34955344, 8.719683
4949965, -4.1659107, -0.35434186, 8.662222
4949975, -4.1611223, -0.35913026, 8.614338
4949985, -4.189853, -0.31124622, 8.66701
4949995, -4.209007, -0.37349546, 8.571242
4950005, -4.2042184, -0.33039984, 8.614338
4950015, -4.189853, -0.35913026, 8.590396
4950025, -4.1706996, -0.320823, 8.561666
4950035, -4.1659107, -0.30645782, 8.571242
4950045, -4.1659107, -0.30645782, 8.542512
4950055, -4.209007, -0.31603462, 8.523358
4950065, -4.1419687, -0.2825158, 8.6574335
4950075, -4.1515455, -0.32561144, 8.652645
4950085, -4.1659107, -0.30645782, 8.66701
4950095, -4.1419687, -0.30166942, 8.686164
4950105, -4.2042184, -0.34955344, 8.700529
4950115, -4.2185836, -0.34476504, 8.690952
4950124, -4.2760444, -0.35434186, 8.710106
4950135, -4.261679, -0.38307226, 8.78672
4950145, -4.3239284, -0.3878607, 8.772355
4950155, -4.3287168, -0.4309563, 8.829816
4950165, -4.3478703, -0.39743748, 8.839393
4950175, -4.381389, -0.4213795, 8.829816
4950185, -4.429273, -0.4261679, 8.90643
4950195, -4.414908, -0.39264908, 8.954314
4950204, -4.462792, -0.4165911, 8.963891
4950214, -4.3718123, -0.40701428, 8.949526
4950224, -4.390966, -0.3878607, 8.954314
4950234, -4.4101195, -0.39743748, 9.054871
4950246, -4.3526587, -0.39743748, 9.045294
4950254, -4.3239284, -0.40701428, 9.030929
4950264, -4.3239284, -0.36870706, 9.02614
4950274, -4.2904096, -0.39264908, 9.016563
4950284, -4.2904096, -0.33997664, 8.954314
4950294, -4.3239284, -0.38307226, 9.006987
4950304, -4.3622355, -0.36870706, 8.973468
4950315, -4.3239284, -0.33518824, 8.978256
4950325, -4.280833, -0.37828386, 9.006987
4950335, -4.271256, -0.31603462, 8.983045
4950345, -4.189853, -0.33039984, 8.944737
4950355, -4.1611223, -0.2873042, 8.896853
4950365, -4.1706996, -0.2777274, 8.848969
4950375, -4.209007, -0.29688102, 8.839393
4950385, -4.247314, -0.2825158, 8.78672
4950395, -4.261679, -0.2873042, 8.686164
4950405, -4.3526587, -0.2681506, 8.6813755
4950415, -4.3239284, -0.2777274, 8.6574335
4950425, -4.3382936, -0.272939, 8.66701
4950435, -4.3047748, -0.24420857, 8.671799
4950445, -4.2664676, -0.25857377, 8.604761
4950455, -4.285621, -0.22984336, 8.528147
4950465, -4.213795, -0.22026655, 8.556877
4950475, -4.19943, -0.22026655, 8.604761
4950485, -4.237737, -0.23463176, 8.623915
4950495, -4.232949, -0.21068975, 8.652645
4950505, -4.223372, -0.24899697, 8.623915
4950515, -4.2664676, -0.2825158, 8.6334915
4950525, -4.3478703, -0.22984336, 8.647857
4950535, -4.357447, -0.272939, 8.6574335
4950545, -4.4005427, -0.2777274, 8.686164
4950555, -4.405331, -0.2825158, 8.724471
4950565, -4.4196963, -0.31603462, 8.734048
4950575, -4.4340615, -0.33997664, 8.743625
4950585, -4.4005427, -0.33518824, 8.743625
4950595, -4.405331, -0.34955344, 8.7053175
4950605, -4.3957543, -0.33997664, 8.772355
4950615, -4.3382936, -0.35434186, 8.738836
4950625, -4.3239284, -0.34476504, 8.700529
4950635, -4.3718123, -0.320823, 8.643068
4950645, -4.3861775, -0.33518824, 8.6574335
4950655, -4.4196963, -0.29688102, 8.63828
4950664, -4.390966, -0.31603462, 8.643068
4950674, -4.367024, -0.24899697, 8.676587
4950685, -4.3143516, -0.21068975, 8.619126
4950695, -4.3382936, -0.22505496, 8.767567
4950705, -4.2664676, -0.30166942, 8.858546
4950715, -4.261679, -0.29688102, 8.858546
4950725, -4.1419687, -0.29688102, 8.8777
4950735, -4.0940847, -0.36391866, 8.892065
4950745, -4.0318356, -0.39743748, 8.911219
4950755, -4.0078936, -0.4213795, 8.853758
4950765, -3.9935284, -0.47884035, 8.959103
4950775, -4.036624, -0.50278234, 8.992621
4950785, -4.1132383, -0.58897364, 9.006987
4950795, -4.271256, -0.62249243, 9.035717
4950805, -4.3622355, -0.6991069, 8.992621
4950815, -4.4244847, -0.7182605, 8.949526
4950825, -4.525041, -0.7613561, 8.992621
4950835, -4.5394063, -0.7613561, 8.959103
4950845, -4.6112323, -0.82360536, 8.973468
4950855, -4.6255975, -0.79966336, 8.968679
4950865, -4.5920787, -0.81881696, 8.963891
4950875, -4.55856, -0.80445176, 8.863335
4950885, -4.582502, -0.8379706, 8.829816
4950895, -4.548983, -0.80924016, 8.738836
4950905, -4.5537715, -0.80445176, 8.6334915
4950915, -4.6160207, -0.80924016, 8.6095495
4950925, -4.6495395, -0.7326257, 8.571242
4950935, -4.630386, -0.7134721, 8.628703
4950945, -4.6399627, -0.6943185, 8.6095495
4950955, -4.6160207, -0.7230489, 8.5473
4950965, -4.596867, -0.6799533, 8.566454
4950975, -4.5154643, -0.6847417, 8.623915
4950985, -4.4819455, -0.6703765, 8.6574335
4950995, -4.4963107, -0.6512229, 8.690952
4951005, -4.486734, -0.641646, 8.652645
4951015, -4.462792, -0.60333884, 8.6334915
4951025, -4.4723687, -0.59376204, 8.590396
4951035, -4.4963107, -0.60333884, 8.647857
4951045, -4.4819455, -0.58897364, 8.647857
4951055, -4.510676, -0.60333884, 8.66701
4951065, -4.5537715, -0.6368576, 8.743625
4951075, -4.534618, -0.6368576, 8.781932
4951085, -4.4819455, -0.62728083, 8.825027
4951095, -4.525041, -0.6368576, 8.853758
4951105, -4.501099, -0.6368576, 8.748413
4951115, -4.510676, -0.6703765, 8.791509
4951125, -4.5202527, -0.6655881, 8.748413
4951135, -4.5777135, -0.6703765, 8.738836
4951145, -4.6495395, -0.6799533, 8.772355
4951155, -4.630386, -0.6703765, 8.75799
4951165, -4.606444, -0.6703765, 8.7292595
4951175, -4.582502, -0.63206923, 8.719683
4951185, -4.55856, -0.61291564, 8.719683
4951195, -4.4963107, -0.62728083, 8.6813755
4951205, -4.5154643, -0.63206923, 8.662222
4951215, -4.501099, -0.62249243, 8.6334915
4951225, -4.5154643, -0.62249243, 8.6334915
4951235, -4.5441947, -0.59376204, 8.614338
4951244, -4.5058875, -0.60812724, 8.7771435
4951254, -4.5154643, -0.5650316, 8.480263
4951264, -4.4580035, -0.50757074, 8.66701
4951274, -4.462792, -0.5363012, 8.7292595
4951284, -4.4484267, -0.521936, 8.671799
4951294, -4.4340615, -0.5315128, 8.63828
4951304, -4.453215, -0.5602432, 8.623915
4951314, -4.510676, -0.5602432, 8.542512
4951324, -4.5298295, -0.5315128, 8.523358
4951334, -4.548983, -0.51235914, 8.576031
4951344, -4.5920787, -0.47884035, 8.556877
4951354, -4.5394063, -0.46926352, 8.671799
4951364, -4.4484267, -0.46926352, 8.695741
4951374, -4.381389, -0.4165911, 8.772355
4951384, -4.247314, -0.47405192, 8.767567
4951394, -4.19943, -0.4213795, 8.815451
4951404, -4.209007, -0.4309563, 8.882488
4951414, -4.189853, -0.44532153, 8.829816
4951424, -4.185065, -0.45010993, 8.844181
4951434, -4.247314, -0.49320555, 8.848969
4951445, -4.2521024, -0.48362875, 8.916007
4951454, -4.357447, -0.49320555, 8.901642
4951464, -4.4005427, -0.49799395, 8.911219
4951474, -4.4675803, -0.51714754, 8.920795
4951484, -4.4675803, -0.51714754, 8.887277
4951494, -4.4675803, -0.5363012, 8.844181
4951504, -4.4963107, -0.51235914, 8.801085
4951514, -4.4915223, -0.51235914, 8.748413
4951524, -4.462792, -0.51235914, 8.662222
4951534, -4.501099, -0.46926352, 8.738836
4951544, -4.4101195, -0.47884035, 8.714894
4951554, -4.4340615, -0.45010993, 8.734048
4951564, -4.357447, -0.4405331, 8.7771435
4951574, -4.3287168, -0.46926352, 8.734048
4951584, -4.3622355, -0.45010993, 8.738836
4951594, -4.3766007, -0.49320555, 8.671799
4951604, -4.390966, -0.48841715, 8.6095495
4951614, -4.4244847, -0.49320555, 8.542512
4951624, -4.4915223, -0.50278234, 8.499416
4951634, -4.5394063, -0.50757074, 8.504205
4951644, -4.620809, -0.50757074, 8.494628
4951654, -4.6495395, -0.5410896, 8.585608
4951664, -4.711789, -0.58418524, 8.595184
4951674, -4.697424, -0.5506664, 8.6334915
4951684, -4.654328, -0.58418524, 8.719683
4951694, -4.6160207, -0.58897364, 8.710106
4951704, -4.5633483, -0.641646, 8.714894
4951714, -4.4915223, -0.60812724, 8.662222
4951724, -4.5058875, -0.61291564, 8.676587
4951734, -4.4244847, -0.61291564, 8.734048
4951744, -4.4340615, -0.59376204, 8.676587
4951754, -4.3957543, -0.61291564, 8.75799
4951764, -4.4101195, -0.59855044, 8.825027
4951774, -4.462792, -0.58897364, 8.805874
4951784, -4.429273, -0.59376204, 8.829816
4951794, -4.501099, -0.61291564, 8.901642
4951804, -4.5154643, -0.60333884, 8.896853
4951814, -4.5154643, -0.5793968, 8.916007
4951824, -4.4819455, -0.5554548, 8.901642
4951834, -4.4196963, -0.51714754, 8.815451
4951844, -4.3957543, -0.47884035, 8.738836
4951854, -4.343082, -0.48841715, 8.690952
4951864, -4.309563, -0.45489833, 8.710106
4951874, -4.357447, -0.44532153, 8.6334915
4951884, -4.414908, -0.48362875, 8.690952
4951894, -4.462792, -0.47884035, 8.7292595
4951904, -4.4484267, -0.48362875, 8.7292595
4951914, -4.4723687, -0.5315128, 8.6813755
4951924, -4.429273, -0.5315128, 8.690952
4951934, -4.4580035, -0.49799395, 8.734048
4951944, -4.3861775, -0.49320555, 8.815451
4951954, -4.3957543, -0.48841715, 8.90643
4951964, -4.309563, -0.47405192, 8.858546
4951974, -4.295198, -0.545878, 8.834604
4951984, -4.343082, -0.5267244, 8.801085
4951994, -4.390966, -0.51714754, 8.791509
4952004, -4.3861775, -0.5267244, 8.7532015
4952014, -4.4963107, -0.58418524, 8.781932
4952026, -4.5202527, -0.60333884, 8.810662
4952034, -4.4963107, -0.59855044, 8.78672
4952044, -4.5920787, -0.61291564, 8.801085
4952054, -4.5777135, -0.61770403, 8.863335
4952064, -4.55856, -0.61770403, 8.868123
4952075, -4.5298295, -0.58897364, 8.868123
4952084, -4.5058875, -0.5650316, 8.820239
4952094, -4.4963107, -0.5506664, 8.805874
4952104, -4.4723687, -0.50278234, 8.75799
4952114, -4.501099, -0.51714754, 8.6813755
4952126, -4.4580035, -0.48362875, 8.762778
4952134, -4.525041, -0.50757074, 8.719683
4952144, -4.5633483, -0.46447513, 8.820239
4952154, -4.630386, -0.5506664, 8.968679
4952164, -4.620809, -0.48841715, 8.959103
4952176, -4.548983, -0.45010993, 8.930372
4952184, -4.4675803, -0.40701428, 8.853758
4952194, -4.4101195, -0.36870706, 8.7053175
4952204, -4.3382936, -0.31124622, 8.623915
4952214, -4.333505, -0.2777274, 8.51857
4952225, -4.247314, -0.2681506, 8.485051
4952234, -4.3478703, -0.23463176, 8.441956
4952244, -4.3526587, -0.2825158, 8.51857
4952254, -4.3526587, -0.2825158, 8.576031
4952264, -4.3526587, -0.2777274, 8.552089
4952275, -4.4196963, -0.23463176, 8.619126
4952284, -4.4436383, -0.22984336, 8.671799
4952294, -4.405331, -0.22505496, 8.63828
4952304, -4.381389, -0.18195933, 8.580819
4952314, -4.4101195, -0.19153613, 8.537724
4952325, -4.381389, -0.16280572, 8.556877
4952334, -4.381389, -0.19153613, 8.528147
4952344, -4.367024, -0.16759412, 8.561666
4952354, -4.343082, -0.18195933, 8.537724
4952364, -4.2999864, -0.20111294, 8.542512
4952376, -4.280833, -0.19632454, 8.576031
4952384, -4.2664676, -0.19632454, 8.576031
4952394, -4.2999864, -0.19632454, 8.604761
4952404, -4.343082, -0.2633622, 8.690952
4952414, -4.357447, -0.25378537, 8.781932
4952425, -4.4101195, -0.2777274, 8.858546
4952434, -4.381389, -0.24899697, 8.810662
4952444, -4.2760444, -0.2681506, 8.844181
4952454, -4.237737, -0.30645782, 8.844181
4952464, -4.285621, -0.34476504, 8.963891
4952475, -4.3622355, -0.39743748, 9.016563
4952484, -4.4101195, -0.45489833, 9.126697
4952494, -4.3718123, -0.45489833, 9.112331
4952504, -4.31914, -0.46447513, 9.088389
4952514, -4.295198, -0.48362875, 9.040505
4952525, -4.3047748, -0.48841715, 8.983045
4952534, -4.3526587, -0.521936, 8.944737
4952544, -4.4436383, -0.545878, 8.954314
4952554, -4.5058875, -0.5602432, 8.901642
4952564, -4.606444, -0.60333884, 8.925584
4952576, -4.6351743, -0.59855044, 8.858546
4952584, -4.6255975, -0.60812724, 8.805874
4952594, -4.5777135, -0.56982, 8.700529
4952604, -4.5298295, -0.5650316, 8.724471
4952614, -4.5681367, -0.56982, 8.676587
4952626, -4.5058875, -0.50278234, 8.662222
4952634, -4.5298295, -0.50278234, 8.671799
4952644, -4.534618, -0.46447513, 8.619126
4952654, -4.5394063, -0.4309563, 8.590396
4952664, -4.548983, -0.40701428, 8.6334915
4952675, -4.525041, -0.37349546, 8.528147
4952684, -4.501099, -0.33039984, 8.537724
4952694, -4.405331, -0.320823, 8.561666
4952704, -4.3239284, -0.32561144, 8.561666
4952714, -4.285621, -0.320823, 8.51857
4952726, -4.2521024, -0.272939, 8.532935
4952734, -4.2281604, -0.272939, 8.571242
4952744, -4.2521024, -0.2825158, 8.614338
4952754, -4.271256, -0.272939, 8.7532015
4952764, -4.2425256, -0.29209262, 8.796297
4952775, -4.2664676, -0.320823, 8.801085
4952784, -4.2521024, -0.34955344, 8.815451
4952794, -4.309563, -0.36870706, 8.90643
4952804, -4.3239284, -0.4261679, 8.987833
4952814, -4.333505, -0.4261679, 9.035717
4952825, -4.2760444, -0.4309563, 9.088389
4952834, -4.2664676, -0.37828386, 9.169792
4952844, -4.2760444, -0.38307226, 9.121908
4952854, -4.256891, -0.37828386, 9.078813
4952864, -4.295198, -0.36870706, 8.901642
4952874, -4.2664676, -0.35434186, 8.848969
4952884, -4.309563, -0.37828386, 8.743625
4952894, -4.3478703, -0.33039984, 8.75799
4952904, -4.3766007, -0.320823, 8.772355
4952914, -4.381389, -0.34476504, 8.78672
4952925, -4.3718123, -0.35913026, 8.858546
4952934, -4.3526587, -0.35913026, 8.791509
4952944, -4.3478703, -0.40222588, 8.710106
4952954, -4.3766007, -0.39264908, 8.762778
4952964, -4.4340615, -0.4261679, 8.719683
4952974, -4.525041, -0.4261679, 8.7771435
4952984, -4.5394063, -0.46447513, 8.796297
4952994, -4.5058875, -0.47405192, 8.743625
4953004, -4.4915223, -0.46447513, 8.710106
4953014, -4.477157, -0.4309563, 8.662222
4953025, -4.477157, -0.45010993, 8.647857
4953034, -4.4580035, -0.4213795, 8.6334915
4953044, -4.5154643, -0.40701428, 8.690952
4953054, -4.477157, -0.39264908, 8.719683
4953064, -4.4340615, -0.35913026, 8.63828
4953074, -4.453215, -0.33518824, 8.6574335
4953084, -4.43885, -0.33997664, 8.714894
4953094, -4.3957543, -0.29209262, 8.724471
4953104, -4.3766007, -0.33039984, 8.7771435
4953114, -4.333505, -0.33997664, 8.825027
4953124, -4.256891, -0.320823, 8.944737
4953134, -4.175488, -0.33997664, 8.968679
4953144, -4.1180267, -0.34955344, 8.968679
4953154, -4.156334, -0.31124622, 8.963891
4953164, -4.146757, -0.36391866, 8.935161
4953174, -4.1515455, -0.35434186, 8.90643
4953184, -4.209007, -0.33039984, 8.834604
4953194, -4.309563, -0.36391866, 8.887277
4953204, -4.3861775, -0.33997664, 8.930372
4953214, -4.429273, -0.41180268, 8.992621
4953224, -4.4340615, -0.39743748, 9.030929
4953234, -4.381389, -0.41180268, 9.059659
4953244, -4.271256, -0.4309563, 9.006987
4953254, -4.256891, -0.40701428, 8.963891
4953264, -4.2521024, -0.37828386, 8.868123
4953274, -4.3143516, -0.31603462, 8.791509
4953284, -4.3047748, -0.33039984, 8.767567
4953294, -4.333505, -0.33039984, 8.710106
4953304, -4.31914, -0.2825158, 8.724471
4953314, -4.343082, -0.2873042, 8.7292595
4953325, -4.405331, -0.30645782, 8.738836
4953334, -4.43885, -0.30166942, 8.829816
4953344, -4.4005427, -0.320823, 8.848969
4953354, -4.3718123, -0.31124622, 8.959103
4953364, -4.2760444, -0.2825158, 8.968679
4953374, -4.185065, -0.25857377, 8.901642
4953384, -4.223372, -0.2633622, 8.858546
4953394, -4.213795, -0.2873042, 8.839393
4953404, -4.31914, -0.31124622, 8.762778
4953414, -4.414908, -0.272939, 8.762778
4953424, -4.4819455, -0.31603462, 8.695741
4953434, -4.525041, -0.29209262, 8.700529
4953444, -4.4915223, -0.2873042, 8.63828
4953454, -4.486734, -0.29209262, 8.604761
4953464, -4.453215, -0.29209262, 8.623915
4953474, -4.5058875, -0.22984336, 8.537724
4953484, -4.510676, -0.23942018, 8.5473
4953494, -4.510676, -0.18674773, 8.48984
4953504, -4.4340615, -0.21068975, 8.437167
4953514, -4.343082, -0.16759412, 8.470686
4953524, -4.3239284, -0.18674773, 8.504205
4953534, -4.3047748, -0.19153613, 8.66701
4953544, -4.3287168, -0.21068975, 8.825027
4953554, -4.2904096, -0.23463176, 8.920795
4953564, -4.2281604, -0.21068975, 8.916007
4953574, -4.132392, -0.22026655, 8.939949
4953584, -4.156334, -0.24899697, 9.02614
4953594, -4.098873, -0.22505496, 9.069236
4953604, -4.156334, -0.2681506, 9.150639
4953614, -4.1802764, -0.21547815, 9.179369
4953624, -4.256891, -0.24420857, 9.160215
4953634, -4.280833, -0.22505496, 9.121908
4953644, -4.31914, -0.21547815, 9.016563
4953654, -4.3526587, -0.21068975, 8.930372
4953664, -4.3622355, -0.15801731, 8.738836
4953674, -4.367024, -0.15322891, 8.686164
4953684, -4.333505, -0.110133275, 8.676587
4953694, -4.31914, -0.14844051, 8.647857
4953704, -4.3287168, -0.10055647, 8.6813755
4953714, -4.2521024, -0.08619126, 8.652645
4953725, -4.2664676, -0.11971009, 8.719683
4953734, -4.247314, -0.10534488, 8.719683
4953744, -4.213795, -0.12449849, 8.6813755
4953754, -4.213795, -0.090979666, 8.78672
4953764, -4.2042184, -0.14844051, 8.839393
4953775, -4.247314, -0.16280572, 8.896853
4953784, -4.309563, -0.21547815, 8.8777
4953794, -4.3622355, -0.25857377, 8.839393
4953804, -4.4484267, -0.23942018, 8.872911
4953814, -4.453215, -0.2681506, 8.834604
4953824, -4.4244847, -0.25857377, 8.820239
4953834, -4.4675803, -0.2777274, 8.810662
4953844, -4.453215, -0.25857377, 8.853758
4953854, -4.4484267, -0.23942018, 8.743625
4953864, -4.462792, -0.23463176, 8.796297
4953874, -4.486734, -0.20590134, 8.628703
4953884, -4.4915223, -0.19153613, 8.628703
4953894, -4.453215, -0.18195933, 8.576031
4953904, -4.4819455, -0.14844051, 8.566454
4953914, -4.4340615, -0.11971009, 8.508993
4953924, -4.3861775, -0.1436521, 8.513782
4953934, -4.295198, -0.095768064, 8.6574335
4953944, -4.247314, -0.095768064, 8.6813755
4953954, -4.189853, -0.05267244, 8.748413
4953964, -4.1371803, -0.095768064, 8.781932
4953974, -4.209007, -0.08619126, 8.796297
4953984, -4.2281604, -0.11492168, 8.882488
4953994, -4.271256, -0.11492168, 8.916007
4954004, -4.357447, -0.11492168, 8.90643
4954014, -4.357447, -0.12449849, 8.8777
4954024, -4.31914, -0.12928689, 8.844181
4954034, -4.271256, -0.095768064, 8.772355
4954044, -4.185065, -0.1340753, 8.7053175
4954054, -4.185065, -0.10055647, 8.772355
4954064, -4.1659107, -0.110133275, 8.820239
4954074, -4.175488, -0.1388637, 8.868123
4954084, -4.19943, -0.18674773, 8.920795
4954094, -4.2760444, -0.23942018, 8.99741
4954104, -4.31914, -0.24420857, 9.054871
4954114, -4.2904096, -0.24899697, 9.131485
4954124, -4.247314, -0.24899697, 9.064447
4954134, -4.189853, -0.20590134, 8.959103
4954144, -4.213795, -0.21068975, 8.858546
4954154, -4.280833, -0.24899697, 8.805874
4954164, -4.3239284, -0.23463176, 8.801085
4954174, -4.4244847, -0.23942018, 8.853758
4954184, -4.5058875, -0.19632454, 8.829816
4954194, -4.510676, -0.1436521, 8.7292595
4954204, -4.572925, -0.095768064, 8.643068
4954214, -4.596867, -0.095768064, 8.63828
4954224, -4.510676, -0.076614454, 8.614338
4954234, -4.4101195, -0.10055647, 8.590396
4954244, -4.3047748, -0.05267244, 8.614338
4954254, -4.189853, -0.038307227, 8.6334915
4954264, -4.1132383, -0.038307227, 8.690952
4954274, -3.98874, -0.023942016, 8.738836
4954284, -4.0174704, -0.01436521, 8.796297
4954294, -4.1180267, -0.033518825, 8.935161
4954304, -4.0701427, -0.06703765, 8.992621
4954314, -4.1276035, -0.10534488, 8.939949
4954324, -4.1659107, -0.110133275, 8.968679
4954334, -4.213795, -0.18674773, 9.016563
4954344, -4.237737, -0.29688102, 9.069236
4954354, -4.3047748, -0.41180268, 9.26556
4954364, -4.3143516, -0.33997664, 9.02614
4954374, -4.343082, -0.33039984, 8.791509
4954384, -4.3143516, -0.34955344, 8.652645
4954394, -4.3957543, -0.34476504, 8.508993
4954404, -4.4915223, -0.37349546, 8.51857
4954414, -4.5394063, -0.37828386, 8.561666
4954424, -4.4819455, -0.37349546, 8.485051
4954434, -4.4005427, -0.37828386, 8.485051
4954444, -4.4340615, -0.35913026, 8.480263
4954454, -4.4580035, -0.38307226, 8.494628
4954464, -4.4484267, -0.36391866, 8.628703
4954474, -4.4005427, -0.41180268, 8.825027
4954484, -4.3526587, -0.39743748, 8.887277
4954494, -4.3622355, -0.4357447, 8.973468
4954505, -4.3861775, -0.39743748, 9.107543
4954514, -4.3718123, -0.36391866, 9.131485
4954524, -4.2999864, -0.33518824, 9.169792
4954534, -4.3287168, -0.31124622, 9.136273
4954544, -4.0940847, -0.24420857, 9.174581
4954554, -4.003105, -0.25378537, 9.160215
4954565, -3.9695864, -0.2633622, 9.150639
4954574, -3.9360676, -0.22505496, 9.102755
4954585, -3.964798, -0.23463176, 9.050082
4954595, -4.0174704, -0.24420857, 8.99741
4954605, -4.1036615, -0.2681506, 8.978256
4954615, -4.223372, -0.2873042, 8.916007
4954625, -4.309563, -0.2633622, 8.90643
4954635, -4.2999864, -0.2633622, 8.935161
4954644, -4.3047748, -0.24899697, 8.872911
4954655, -4.2281604, -0.23463176, 8.805874
4954665, -4.185065, -0.23463176, 8.796297
4954674, -4.1515455, -0.22026655, 8.810662
4954685, -4.1132383, -0.20590134, 8.834604
4954695, -4.132392, -0.22984336, 8.834604
4954704, -4.2042184, -0.23463176, 8.887277
4954715, -4.2281604, -0.24899697, 8.978256
4954725, -4.2904096, -0.29688102, 8.968679
4954735, -4.2904096, -0.24420857, 8.978256
4954745, -4.280833, -0.24899697, 8.959103
4954755, -4.247314, -0.20111294, 9.02614
4954764, -4.2281604, -0.16759412, 8.8777
4954774, -4.185065, -0.17717093, 8.762778
4954785, -4.209007, -0.1340753, 8.78672
4954795, -4.261679, -0.076614454, 8.75799
4954805, -4.280833, -0.1340753, 8.820239
4954815, -4.2521024, -0.06703765, 8.820239
4954825, -4.261679, -0.076614454, 8.781932
4954835, -4.2760444, -0.08619126, 8.772355
4954844, -4.280833, -0.038307227, 8.825027
4954855, -4.2042184, -0.02873042, 8.805874
4954865, -4.189853, 0.0047884034, 8.796297
4954874, -4.1611223, -0.023942016, 8.805874
4954885, -4.1132383, 0.023942016, 8.820239
4954895, -4.0797195, 0.05267244, 8.848969
4954905, -4.027047, 0.01436521, 8.882488
4954915, -4.0892963, 0.023942016, 8.901642
4954925, -4.122815, -0.01436521, 8.949526
4954935, -4.175488, -0.07182605, 8.99741
4954945, -4.213795, -0.08140286, 9.02614
4954954, -4.209007, -0.1340753, 9.045294
4954965, -4.213795, -0.11492168, 9.102755
4954975, -4.1611223, -0.15801731, 9.121908
4954985, -4.1659107, -0.15322891, 9.11712
4954995, -4.0940847, -0.10534488, 8.968679
4955005, -4.084508, -0.10055647, 8.930372
4955015, -4.098873, -0.023942016, 8.839393
4955025, -4.0797195, -0.009576807, 8.90643
4955035, -4.060566, 0.019153614, 8.762778
4955045, -3.98874, 0.033518825, 8.801085
4955055, -4.003105, 0.019153614, 8.623915
4955065, -4.0318356, 0.019153614, 8.590396
4955075, -4.050989, -0.009576807, 8.528147
4955085, -4.2042184, -0.05746084, 8.5473
4955095, -4.256891, -0.08140286, 8.542512
4955105, -4.1276035, -0.06703765, 8.451532
4955115, -4.247314, -0.02873042, 8.614338
4955125, -4.232949, 0.047884032, 8.743625
4955135, -4.261679, 0.11492168, 8.901642
4955145, -4.2425256, 0.095768064, 8.983045
4955155, -4.1802764, 0.08140286, 8.99741
4955165, -4.122815, 0.023942016, 8.810662
4955175, -4.0701427, -0.05267244, 8.935161
4955185, -4.122815, -0.17717093, 8.872911
4955195, -4.309563, -0.21068975, 9.011775
4955204, -4.4915223, -0.22026655, 9.270349
4955215, -4.525041, -0.24420857, 9.299079
4955225, -4.486734, -0.18195933, 9.179369
4955235, -4.3478703, -0.16759412, 9.112331
4955245, -4.2042184, -0.11971009, 8.858546
4955255, -4.098873, -0.076614454, 8.791509
4955265, -4.0414124, -0.14844051, 8.556877
4955275, -4.050989, -0.1388637, 8.566454
4955285, -4.0892963, -0.17717093, 8.6095495
4955295, -4.1946416, -0.19632454, 8.619126
4955305, -4.10845, -0.22984336, 8.676587
4955315, -4.185065, -0.18195933, 8.762778
4955325, -4.2521024, -0.19632454, 8.853758
4955335, -4.2521024, -0.16280572, 8.801085
4955345, -4.247314, -0.090979666, 8.935161
4955355, -4.213795, -0.11971009, 8.99741
4955365, -4.2185836, -0.095768064, 8.916007
4955375, -4.213795, -0.07182605, 8.963891
4955385, -4.132392, -0.12449849, 8.791509
4955395, -4.0701427, -0.095768064, 8.796297
4955405, -4.036624, -0.1436521, 8.844181
4955415, -4.0414124, -0.10534488, 8.872911
4955425, -4.1036615, -0.12928689, 8.973468
4955435, -4.0557775, -0.17238252, 8.954314
4955445, -4.012682, -0.110133275, 8.90643
4955455, -3.9935284, -0.10055647, 8.99741
4955465, -4.012682, -0.08619126, 8.987833
4955475, -3.9791632, -0.14844051, 8.887277
4955485, -4.0318356, -0.1436521, 8.992621
4955495, -4.084508, -0.18195933, 8.858546
4955505, -4.156334, -0.1436521, 8.954314
4955515, -4.1802764, -0.20111294, 9.069236
4955525, -4.19943, -0.18674773, 9.284714
4955535, -4.2042184, -0.14844051, 9.375694
4955545, -4.2281604, -0.25857377, 9.275137
4955555, -4.0940847, -0.11492168, 9.227253
4955565, -4.0701427, -0.12449849, 9.313444
4955575, -3.8019924, -0.22505496, 9.212888
4955585, -4.122815, -0.07182605, 9.083601
4955595, -4.132392, -0.110133275, 8.99741
4955605, -4.1371803, -0.090979666, 8.901642
4955615, -4.1036615, -0.05746084, 8.839393
4955625, -4.074931, -0.019153614, 8.829816
4955635, -4.012682, -0.02873042, 8.743625
4955645, -3.98874, -0.07182605, 8.710106
4955655, -3.9743748, 0.019153614, 8.724471
4955665, -4.0174704, -0.023942016, 8.7292595
4955675, -4.027047, 0.047884032, 8.748413
4955685, -4.0892963, 0.05267244, 8.710106
4955695, -4.0797195, 0.038307227, 8.805874
4955705, -4.012682, 0.05746084, 8.695741
4955715, -3.9552212, 0.07182605, 8.844181
4955725, -3.9025488, 0.023942016, 8.848969
4955735, -3.916914, 0.0047884034, 8.90643
4955744, -3.9312792, 0.023942016, 8.916007
4955755, -3.9073372, 0.033518825, 8.939949
4955765, -3.8115692, 0.038307227, 8.968679
4955775, -3.7253778, 0.019153614, 9.02614
4955785, -3.7349546, 0.05267244, 9.040505
4955795, -3.7493198, -0.0047884034, 9.064447
4955805, -3.7301662, 0.06703765, 9.203311
4955815, -3.8067808, 0.04309563, 9.303867
4955825, -3.8355112, 0.07182605, 9.3182335
4955835, -3.8833952, 0.076614454, 9.284714
4955845, -3.9073372, 0.033518825, 9.212888
4955855, -3.9073372, 0.047884032, 9.227253
4955865, -3.9312792, 0.047884032, 9.14585
4955875, -3.9312792, 0.04309563, 9.074024
4955885, -3.9312792, 0.023942016, 8.949526
4955895, -3.9791632, -0.0047884034, 9.02614
4955905, -4.0078936, 0.009576807, 8.954314
4955915, -4.0318356, 0.019153614, 8.901642
4955925, -3.98874, 0.062249243, 8.935161
4955935, -3.98874, -0.0047884034, 8.911219
4955945, -4.0078936, 0.023942016, 8.839393
4955955, -4.0462008, -0.02873042, 8.801085
4955965, -4.0414124, -0.04309563, 8.863335
4955975, -4.0414124, -0.01436521, 8.743625
4955985, -4.122815, -0.02873042, 8.944737
4955995, -4.175488, -0.1340753, 8.911219
4956005, -4.213795, -0.15322891, 8.963891
4956015, -4.280833, -0.18674773, 8.930372
4956025, -4.223372, -0.17238252, 8.954314
4956035, -4.237737, -0.19632454, 8.935161
4956045, -4.146757, -0.15322891, 8.99741
4956055, -4.0222588, -0.19153613, 8.939949
4956065, -4.084508, -0.18674773, 9.069236
4956075, -4.1371803, -0.20111294, 9.184157
4956085, -4.209007, -0.14844051, 9.193734
4956095, -4.19943, -0.05746084, 9.097966
4956105, -4.209007, 0.033518825, 9.107543
4956115, -4.2664676, 0.1388637, 9.030929
4956125, -4.156334, 0.17717093, 8.868123
4956135, -4.060566, 0.23463176, 8.781932
4956145, -3.9791632, 0.25378537, 8.7053175
4956155, -3.9600096, 0.21068975, 8.643068
4956165, -3.916914, 0.22505496, 8.652645
4956175, -3.8259344, 0.24420857, 8.714894
4956185, -3.845088, 0.22984336, 8.724471
4956195, -3.7780502, 0.272939, 8.78672
4956205, -3.715801, 0.22984336, 8.7771435
4956215, -3.6774938, 0.2681506, 8.767567
4956225, -3.7972038, 0.19632454, 8.801085
4956235, -3.9504328, 0.110133275, 8.987833
4956245, -4.003105, 0.1340753, 8.987833
4956255, -3.9983168, 0.07182605, 9.064447
4956265, -3.9839516, 0.0047884034, 9.021352
4956275, -4.027047, -0.01436521, 8.954314
4956285, -4.084508, -0.076614454, 8.99741
4956295, -4.1706996, -0.07182605, 9.074024
4956305, -4.213795, -0.110133275, 9.160215
4956315, -4.223372, -0.1388637, 9.121908
4956325, -4.1371803, -0.095768064, 9.093178
4956335, -4.0940847, -0.10055647, 9.078813
4956345, -4.0557775, -0.023942016, 8.992621
4956355, -4.0797195, -0.06703765, 9.011775
4956365, -4.0653543, -0.0047884034, 9.030929
4956375, -4.1036615, -0.023942016, 9.054871
4956385, -4.0701427, -0.06703765, 9.002198
4956395, -4.0940847, 0.01436521, 9.126697
4956406, -4.0462008, -0.009576807, 9.02614
4956414, -3.98874, 0.07182605, 8.815451
4956424, -3.9504328, 0.08140286, 8.935161
4956435, -3.9264908, 0.110133275, 8.815451
4956445, -3.9456444, 0.22026655, 8.834604
4956455, -3.940856, 0.21547815, 8.949526
4956465, -3.9695864, 0.22505496, 8.872911
4956475, -3.98874, 0.20590134, 8.834604
4956485, -3.9025488, 0.22984336, 8.920795
4956495, -3.9312792, 0.22984336, 9.021352
4956505, -3.8977604, 0.22984336, 8.983045
4956515, -3.845088, 0.21547815, 8.925584
4956525, -3.9456444, 0.25378537, 9.002198
4956536, -3.9935284, 0.2825158, 8.939949
4956545, -4.003105, 0.25378537, 8.901642
4956555, -4.0078936, 0.23463176, 8.901642
4956565, -3.9791632, 0.2633622, 8.983045
4956575, -3.9743748, 0.20590134, 9.021352
4956585, -3.9264908, 0.29209262, 8.911219
4956595, -3.9552212, 0.30166942, 8.954314
4956605, -3.916914, 0.33518824, 9.002198
4956615, -3.8977604, 0.37828386, 8.935161
4956625, -3.9121256, 0.38307226, 8.887277
4956635, -3.8498764, 0.37828386, 8.911219
4956645, -3.8594532, 0.30166942, 8.935161
4956655, -3.8355112, 0.272939, 8.8777
4956665, -3.8259344, 0.23942018, 8.892065
4956675, -3.7972038, 0.20590134, 8.939949
4956685, -3.7780502, 0.24420857, 8.911219
4956695, -3.8594532, 0.19153613, 8.930372
4956705, -3.940856, 0.18195933, 8.925584
4956715, -3.9552212, 0.1388637, 8.959103
4956725, -4.0892963, 0.12449849, 9.021352
4956735, -4.1180267, 0.023942016, 8.930372
4956745, -4.1946416, -0.01436521, 9.155427
4956755, -4.2425256, -0.062249243, 9.112331
4956765, -4.367024, -0.019153614, 9.208099
4956775, -4.285621, -0.02873042, 9.11712
4956785, -4.280833, -0.02873042, 9.021352
4956795, -4.2664676, -0.0047884034, 8.963891
4956805, -4.1419687, 0.038307227, 8.858546
4956815, -4.0414124, 0.10055647, 8.825027
4956825, -3.9600096, 0.15801731, 8.772355
4956835, -3.9264908, 0.19153613, 8.781932
4956845, -3.9217024, 0.20111294, 8.714894
4956855, -3.98874, 0.15322891, 8.66701
4956865, -4.0078936, 0.1340753, 8.75799
4956875, -4.050989, 0.08619126, 8.796297
4956885, -4.003105, 0.10055647, 8.810662
4956895, -4.074931, 0.038307227, 8.8777
4956905, -4.0797195, 0.0047884034, 8.949526
4956915, -4.074931, 0.0047884034, 9.030929
4956925, -4.1036615, -0.019153614, 9.141062
4956935, -4.1180267, -0.05267244, 9.050082
4956945, -4.132392, -0.07182605, 9.074024
4956955, -4.185065, -0.090979666, 9.050082
4956965, -4.1611223, -0.076614454, 9.069236
4956975, -4.247314, -0.07182605, 9.035717
4956985, -4.367024, -0.047884032, 8.99741
4956995, -4.390966, 0.009576807, 9.002198
4957005, -4.429273, -0.02873042, 8.954314
4957015, -4.4244847, 0.019153614, 8.882488
4957025, -4.3718123, 0.06703765, 8.7771435
4957035, -4.2760444, 0.076614454, 8.66701
4957045, -4.185065, 0.06703765, 8.599973
4957055, -4.1659107, 0.05746084, 8.585608
4957065, -4.1706996, 0.095768064, 8.6095495
4957075, -4.175488, 0.090979666, 8.623915
4957085, -4.1706996, 0.08619126, 8.599973
4957095, -4.1802764, 0.076614454, 8.7292595
4957105, -4.256891, 0.08140286, 8.781932
4957115, -4.2760444, 0.12449849, 8.858546
4957125, -4.333505, 0.05267244, 8.868123
4957135, -4.2999864, 0.02873042, 8.983045
4957145, -4.232949, 0.0047884034, 9.059659
4957155, -4.1611223, -0.019153614, 9.083601
4957165, -4.0414124, -0.0047884034, 9.040505
4957175, -3.940856, -0.009576807, 9.050082
4957185, -3.9935284, -0.009576807, 9.035717
4957195, -4.0414124, -0.009576807, 9.069236
4957205, -4.036624, 0.038307227, 9.102755
4957215, -4.0940847, 0.019153614, 9.035717
4957225, -4.10845, 0.06703765, 9.011775
4957235, -4.1180267, 0.05746084, 8.987833
4957245, -4.1611223, 0.11971009, 8.983045
4957255, -4.1659107, 0.095768064, 8.8777
4957265, -4.132392, 0.033518825, 8.887277
4957275, -4.0174704, -0.02873042, 8.820239
4957285, -4.0701427, 0.02873042, 8.78672
4957295, -4.084508, 0.02873042, 8.671799
4957305, -3.892972, 0.05746084, 8.714894
4957315, -3.8402996, 0.22984336, 8.781932
4957325, -3.8402996, 0.25378537, 8.7771435
4957335, -3.8833952, 0.1340753, 8.801085
4957345, -3.9839516, 0.01436521, 8.839393
4957355, -4.156334, -0.062249243, 8.939949
4957365, -4.31914, -0.1388637, 9.02614
4957375, -4.453215, -0.16280572, 9.097966
4957385, -4.477157, -0.20111294, 9.107543
4957395, -4.4436383, -0.16280572, 9.126697
4957405, -4.429273, -0.090979666, 9.241618
4957415, -4.3382936, -0.038307227, 9.222465
4957425, -4.209007, -0.07182605, 9.126697
4957435, -4.1611223, -0.02873042, 9.093178
4957445, -4.2521024, 0.0047884034, 9.078813
4957455, -4.280833, -0.1340753, 8.944737
4957465, -4.4005427, -0.18674773, 8.896853
4957475, -4.43885, -0.21547815, 8.882488
4957485, -4.5154643, -0.16280572, 8.916007
4957495, -4.5298295, -0.090979666, 8.892065
4957505, -4.510676, -0.033518825, 8.805874
4957515, -4.477157, -0.033518825, 8.662222
4957525, -4.4244847, 0.062249243, 8.499416
4957535, -4.4580035, 0.047884032, 8.274361
4957545, -4.4244847, 0.18674773, 8.12592
4957555, -4.486734, 0.11492168, 8.0684595
4957565, -4.31914, 0.19632454, 8.058883
4957575, -4.122815, 0.22505496, 8.001422
4957585, -4.0701427, 0.22026655, 8.049306
4957595, -4.1276035, 0.20111294, 8.111555
4957605, -4.0557775, 0.21068975, 8.0924015
4957615, -4.003105, 0.23463176, 8.202535
4957625, -3.9791632, 0.20590134, 8.279149
4957635, -3.9791632, 0.12449849, 8.360553
4957645, -4.0557775, 0.12449849, 8.528147
4957655, -4.074931, 0.06703765, 8.7292595
4957665, -4.0892963, 0.023942016, 8.901642
4957675, -4.1132383, -0.01436521, 8.959103
4957685, -4.1371803, -0.07182605, 9.126697
4957695, -3.9791632, -0.12449849, 9.246407
4957705, -3.9312792, -0.11492168, 9.294291
4957715, -3.9743748, -0.18674773, 9.3421755
4957725, -3.9264908, -0.19632454, 9.495404
4957735, -4.0892963, -0.22026655, 9.572019
4957745, -4.2185836, -0.20590134, 9.648633
4957755, -4.333505, -0.23942018, 9.595961
4957765, -4.453215, -0.25378537, 9.591172
4957775, -4.663905, -0.24899697, 9.543288
4957785, -4.7884035, -0.21547815, 9.634268
4957795, -4.865018, -0.1388637, 9.634268
4957805, -4.7309427, -0.08140286, 9.476251
4957815, -4.55856, -0.05267244, 9.399636
4957825, -4.333505, -0.033518825, 9.26556
4957835, -4.1659107, 0.047884032, 9.141062
4957845, -4.2042184, 0.16759412, 9.021352
4957855, -4.2185836, 0.16759412, 8.848969
4957865, -4.223372, 0.033518825, 8.7053175
4957875, -4.146757, 0.08619126, 8.66701
4957885, -4.213795, 0.076614454, 8.542512
4957895, -4.132392, 0.05267244, 8.542512
4957905, -4.146757, 0.05267244, 8.614338
4957915, -4.1802764, 0.06703765, 8.595184
4957925, -4.156334, 0.047884032, 8.6334915
4957935, -4.213795, 0.090979666, 8.628703
4957945, -4.132392, 0.1340753, 8.580819
4957955, -4.074931, 0.110133275, 8.508993
4957965, -4.060566, 0.10055647, 8.513782
4957975, -4.0318356, 0.08140286, 8.552089
4957985, -4.098873, 0.02873042, 8.614338
4957995, -4.223372, 0.04309563, 8.686164
4958005, -4.209007, -0.0047884034, 8.714894
4958015, -4.2185836, -0.07182605, 8.714894
4958025, -4.261679, -0.110133275, 8.7053175
4958035, -4.2904096, -0.11971009, 8.695741
4958045, -4.31914, -0.16759412, 8.7532015
4958055, -4.3957543, -0.16759412, 8.738836
4958065, -4.4196963, -0.18674773, 8.7771435
4958075, -4.4915223, -0.19153613, 8.858546
4958085, -4.43885, -0.16280572, 8.801085
4958095, -4.390966, -0.18674773, 8.805874
4958105, -4.3143516, -0.17238252, 8.724471
4958115, -4.285621, -0.19153613, 8.743625
4958125, -4.2521024, -0.16759412, 8.714894
4958135, -4.2760444, -0.17717093, 8.686164
4958145, -4.2999864, -0.20590134, 8.700529
4958155, -4.343082, -0.17238252, 8.743625
4958165, -4.2664676, -0.22984336, 8.762778
4958175, -4.2904096, -0.24420857, 8.7292595
4958185, -4.309563, -0.21068975, 8.738836
4958195, -4.295198, -0.25857377, 8.863335
4958205, -4.333505, -0.24420857, 8.882488
4958215, -4.390966, -0.272939, 8.825027
4958225, -4.4580035, -0.25378537, 8.8777
4958235, -4.4915223, -0.25857377, 8.935161
4958245, -4.4580035, -0.272939, 8.930372
4958255, -4.462792, -0.25378537, 8.959103
4958265, -4.4244847, -0.23463176, 9.002198
4958275, -4.405331, -0.24420857, 8.930372
4958285, -4.357447, -0.25857377, 8.949526
4958295, -4.4005427, -0.24420857, 9.050082
4958305, -4.381389, -0.24899697, 9.069236
4958315, -4.390966, -0.25378537, 9.054871
4958325, -4.4436383, -0.23942018, 9.107543
4958335, -4.4244847, -0.23942018, 9.045294
4958345, -4.4005427, -0.17717093, 9.054871
4958355, -4.381389, -0.16759412, 9.045294
4958365, -4.357447, -0.18674773, 9.02614
4958375, -4.3047748, -0.1388637, 9.035717
4958385, -4.271256, -0.110133275, 9.006987
4958395, -4.209007, -0.110133275, 8.925584
4958405, -4.1802764, -0.076614454, 8.887277
4958415, -4.1276035, -0.038307227, 8.810662
4958425, -4.0653543, -0.0047884034, 8.796297
4958435, -4.0557775, 0.04309563, 8.662222
4958445, -4.0414124, 0.06703765, 8.628703
4958455, -4.0222588, 0.10055647, 8.623915
4958465, -4.0414124, 0.090979666, 8.537724
4958475, -4.0318356, 0.12449849, 8.494628
4958485, -4.0078936, 0.110133275, 8.504205
4958495, -4.0222588, 0.06703765, 8.528147
4958505, -4.012682, 0.07182605, 8.647857
4958515, -4.003105, 0.10055647, 8.6574335
4958525, -3.98874, 0.090979666, 8.724471
4958535, -3.9695864, 0.047884032, 8.815451
4958545, -3.9935284, 0.047884032, 8.882488
4958555, -4.0462008, 0.033518825, 8.911219
4958565, -4.0653543, 0.047884032, 8.853758
4958575, -4.074931, 0.009576807, 9.011775
4958585, -4.0653543, -0.02873042, 9.107543
4958595, -4.084508, -0.05746084, 9.102755
4958605, -4.084508, -0.11492168, 9.021352
4958615, -4.0653543, -0.076614454, 9.093178
4958625, -4.10845, -0.10055647, 9.131485
4958635, -4.050989, -0.08140286, 9.097966
4958645, -4.0414124, -0.08140286, 9.074024
4958655, -4.0940847, -0.10055647, 9.088389
4958665, -4.156334, -0.10055647, 9.169792
4958675, -4.19943, -0.11971009, 9.241618
4958685, -4.2042184, -0.11971009, 9.227253
4958695, -4.209007, -0.095768064, 9.174581
4958705, -4.1659107, -0.10534488, 9.078813
4958715, -4.146757, -0.095768064, 9.02614
4958725, -4.0940847, -0.090979666, 8.992621
4958735, -4.098873, -0.047884032, 9.016563
4958745, -4.0701427, -0.06703765, 9.006987
4958755, -4.036624, -0.062249243, 8.935161
4958765, -4.0797195, -0.019153614, 8.939949
4958775, -4.0557775, -0.019153614, 8.954314
4958785, -4.1419687, 0.02873042, 8.892065
4958795, -4.1515455, -0.038307227, 8.853758
4958805, -4.1802764, 0.033518825, 8.815451
4958815, -4.1659107, 0.033518825, 8.762778
4958825, -4.175488, 0.0047884034, 8.676587
4958835, -4.213795, 0.01436521, 8.719683
4958845, -4.223372, 0.01436521, 8.719683
4958854, -4.1706996, -0.0047884034, 8.6334915
4958865, -4.185065, -0.01436521, 8.714894
4958875, -4.1706996, -0.05746084, 8.743625
4958885, -4.1946416, -0.023942016, 8.791509
4958895, -4.175488, 0.0047884034, 8.791509
4958905, -4.189853, -0.04309563, 8.815451
4958915, -4.1515455, -0.090979666, 8.762778
4958925, -4.1659107, -0.076614454, 8.767567
4958935, -4.223372, -0.08140286, 8.801085
4958945, -4.2521024, -0.076614454, 8.801085
4958955, -4.2042184, -0.08619126, 8.7771435
4958965, -4.1371803, -0.02873042, 8.791509
4958975, -4.1371803, -0.076614454, 8.796297
4958985, -4.1802764, -0.07182605, 8.901642
4958995, -4.2185836, -0.090979666, 8.987833
4959005, -4.2281604, -0.076614454, 8.978256
4959015, -4.232949, -0.095768064, 8.911219
4959025, -4.2425256, -0.076614454, 8.882488
4959035, -4.247314, -0.08140286, 8.844181
4959045, -4.247314, -0.02873042, 8.863335
4959055, -4.1802764, -0.038307227, 8.868123
4959065, -4.1946416, -0.06703765, 8.863335
4959075, -4.10845, -0.023942016, 8.925584
4959085, -4.084508, -0.062249243, 8.925584
4959095, -4.074931, -0.08619126, 8.99741
4959105, -4.0222588, -0.01436521, 9.02614
4959115, -4.0318356, -0.0047884034, 9.021352
4959125, -4.0557775, -0.0047884034, 9.035717
4959135, -4.060566, 0.01436521, 9.021352
4959145, -4.10845, 0.04309563, 8.978256
4959155, -4.1036615, 0.06703765, 8.939949
4959165, -4.1276035, 0.08140286, 8.939949
4959175, -4.0940847, 0.076614454, 8.839393
4959185, -4.0414124, 0.095768064, 8.695741
4959195, -4.0414124, 0.095768064, 8.590396
4959205, -4.0318356, 0.038307227, 8.571242
4959215, -4.074931, 0.062249243, 8.480263
4959225, -4.1611223, 0.062249243, 8.532935
4959235, -4.2281604, -0.023942016, 8.532935
4959245, -4.2185836, -0.05267244, 8.576031
4959255, -4.19943, -0.08140286, 8.6095495
4959265, -4.1706996, -0.110133275, 8.690952
4959275, -4.2042184, -0.110133275, 8.743625
4959285, -4.1802764, -0.17238252, 8.839393
4959295, -4.232949, -0.23463176, 8.896853
4959305, -4.232949, -0.272939, 8.983045
4959315, -4.280833, -0.2825158, 9.045294
4959325, -4.309563, -0.34476504, 9.045294
4959335, -4.3047748, -0.36391866, 9.059659
4959345, -4.271256, -0.38307226, 9.035717
4959355, -4.2999864, -0.34955344, 8.954314
4959365, -4.2664676, -0.38307226, 9.02614
4959375, -4.271256, -0.36391866, 8.987833
4959385, -4.213795, -0.36870706, 8.973468
4959395, -4.271256, -0.2825158, 8.99741
4959405, -4.261679, -0.35913026, 9.083601
4959415, -4.31914, -0.32561144, 9.083601
4959425, -4.31914, -0.29209262, 9.074024
4959435, -4.213795, -0.33997664, 9.011775
4959445, -4.1276035, -0.33518824, 8.963891
4959455, -4.122815, -0.29688102, 8.978256
4959465, -4.10845, -0.2633622, 8.944737
4959475, -4.0940847, -0.23463176, 9.011775
4959485, -4.0222588, -0.272939, 9.088389
4959495, -4.0414124, -0.23463176, 9.121908
4959505, -3.9935284, -0.20111294, 9.112331
4959515, -4.074931, -0.15322891, 9.059659
4959525, -4.1515455, -0.17238252, 8.968679
4959535, -4.1946416, -0.1388637, 8.968679
4959545, -4.1371803, -0.12928689, 8.944737
4959555, -4.0414124, -0.07182605, 8.896853
4959565, -3.9360676, -0.095768064, 8.930372
4959575, -3.8881836, -0.033518825, 8.916007
4959585, -3.9025488, -0.019153614, 8.887277
4959595, -3.8881836, -0.023942016, 8.887277
4959605, -3.9360676, -0.01436521, 8.834604
4959615, -3.964798, -0.05746084, 8.815451
4959625, -3.9791632, -0.038307227, 8.796297
4959635, -4.012682, -0.05746084, 8.805874
4959645, -3.9983168, -0.05746084, 8.839393
4959655, -4.027047, -0.04309563, 8.8777
4959665, -4.0222588, -0.033518825, 8.887277
4959675, -4.0174704, -0.095768064, 8.868123
4959685, -4.0557775, -0.090979666, 8.892065
4959695, -4.074931, -0.1388637, 8.853758
4959705, -4.084508, -0.110133275, 8.825027
4959715, -4.0940847, -0.18674773, 8.882488
4959725, -4.1371803, -0.22984336, 8.973468
4959735, -4.074931, -0.25378537, 8.949526
4959745, -4.1036615, -0.25378537, 8.973468
4959755, -4.060566, -0.29209262, 9.102755
4959765, -4.0557775, -0.36870706, 9.155427
4959775, -4.10845, -0.4165911, 9.198523
4959785, -4.156334, -0.4165911, 9.275137
4959795, -4.1611223, -0.47884035, 9.361329
4959805, -4.185065, -0.5602432, 9.385271
4959815, -4.19943, -0.5267244, 9.476251
4959825, -4.189853, -0.32561144, 11.554418
4959834, -4.1611223, -0.49799395, 8.485051
4959844, -4.0414124, -0.33518824, 9.466674
4959854, -4.1276035, -0.2825158, 9.394848
4959864, -4.2664676, -0.33997664, 9.045294
4959874, -4.405331, -0.20111294, 9.160215
4959884, -4.4005427, -0.17238252, 9.093178
4959894, -4.477157, -0.110133275, 8.829816
4959904, -4.4340615, -0.01436521, 8.815451
4959914, -4.5394063, 0.10534488, 8.695741
4959924, -4.5441947, 0.25857377, 8.37013
4959934, -4.4484267, 0.320823, 8.082825
4959944, -4.453215, 0.39743748, 8.030152
4959954, -4.3526587, 0.4261679, 7.967903
4959964, -4.1946416, 0.50757074, 8.00621
4959974, -4.122815, 0.5315128, 8.034941
4959984, -4.036624, 0.48362875, 8.0684595
4959994, -3.9504328, 0.5602432, 8.130709
4960004, -3.892972, 0.5410896, 8.207323
4960014, -3.8163576, 0.49320555, 8.197746
4960024, -3.8594532, 0.46926352, 8.197746
4960034, -3.9600096, 0.34476504, 8.288726
4960044, -4.1371803, 0.24899697, 8.403648
4960054, -4.2281604, 0.1388637, 8.571242
4960064, -4.3047748, 0.10534488, 8.7292595
4960074, -4.3526587, 0.10534488, 8.7053175
4960084, -4.4101195, -0.062249243, 8.762778
4960094, -4.4244847, -0.19153613, 8.815451
4960104, -4.525041, -0.36870706, 9.002198
4960114, -4.807557, -0.38307226, 9.198523
4960124, -4.8362875, -0.47884035, 9.303867
4960134, -4.745308, -0.51235914, 9.217676
4960144, -4.5394063, -0.45010993, 9.097966
4960154, -4.309563, -0.47405192, 9.02614
4960164, -4.1276035, -0.39743748, 8.968679
4960174, -4.0797195, -0.37349546, 8.916007
4960184, -4.0892963, -0.34955344, 8.887277
4960194, -4.261679, -0.29688102, 8.853758
4960205, -4.405331, -0.30166942, 8.930372
4960215, -4.5394063, -0.320823, 8.978256
4960225, -4.630386, -0.34955344, 9.011775
4960235, -4.5872903, -0.34955344, 9.050082
4960245, -4.4244847, -0.32561144, 9.050082
4960255, -4.285621, -0.2873042, 9.040505
4960264, -4.146757, -0.25378537, 9.136273
4960275, -4.0318356, -0.2873042, 9.217676
4960285, -3.9217024, -0.20590134, 9.279925
4960295, -3.8786068, -0.24899697, 9.361329
4960305, -3.7972038, -0.2873042, 9.504981
4960315, -3.787627, -0.32561144, 9.720459
4960325, -3.7924154, -0.31124622, 10.0029745
4960335, -4.012682, -0.038307227, 11.57836
4960344, -3.7780502, -0.22984336, 9.059659
4960354, -3.9983168, -0.023942016, 9.414001
4960364, -3.964798, 0.038307227, 9.241618
4960374, -4.1706996, 0.20111294, 8.6095495
4960384, -4.0892963, 0.33039984, 8.595184
4960394, -3.9695864, 0.30166942, 8.499416
4960404, -3.9552212, 0.40222588, 8.350976
4960414, -3.9935284, 0.50757074, 8.394072
4960424, -3.940856, 0.5793968, 8.571242
4960434, -3.9360676, 0.56982, 8.580819
4960444, -3.964798, 0.58418524, 8.422802
4960454, -4.122815, 0.58897364, 8.374918
4960464, -4.2281604, 0.46926352, 8.422802
4960474, -4.1611223, 0.5267244, 8.322245
4960484, -4.1180267, 0.46926352, 8.288726
4960494, -3.98874, 0.39264908, 8.169016
4960504, -4.10845, 0.35913026, 8.408437
4960514, -4.10845, 0.33997664, 8.604761
4960524, -4.1276035, 0.272939, 8.781932
4960534, -3.9935284, 0.17717093, 8.858546
4960544, -3.9839516, 0.12928689, 8.939949
4960554, -3.9935284, 0.08140286, 9.064447
4960564, -4.027047, -0.062249243, 9.222465
4960574, -4.074931, -0.12928689, 9.409213
4960584, -4.156334, -0.23463176, 9.667787
4960594, -4.3382936, -0.19153613, 9.768343
4960604, -4.3861775, -0.20590134, 9.485827
4960614, -4.3047748, -0.23463176, 9.246407
4960625, -4.280833, -0.1340753, 9.011775
4960634, -4.19943, -0.110133275, 8.791509
4960644, -4.1802764, -0.05746084, 8.6813755
4960655, -4.237737, 0.009576807, 8.556877
4960665, -4.31914, 0.04309563, 8.384495
4960675, -4.3622355, 0.04309563, 8.283937
4960685, -4.4580035, 0.08619126, 8.197746
4960695, -4.4915223, 0.08619126, 8.12592
4960705, -4.55856, 0.07182605, 8.135497
4960714, -4.582502, 0.019153614, 8.279149
4960725, -4.5777135, 0.04309563, 8.379706
4960735, -4.4963107, 0.04309563, 8.446744
4960745, -4.4196963, -0.033518825, 8.561666
4960755, -4.3622355, -0.023942016, 8.686164
4960764, -4.333505, -0.076614454, 8.815451
4960775, -4.3047748, -0.10055647, 8.973468
4960785, -4.19943, -0.095768064, 9.069236
4960795, -4.1946416, -0.10534488, 9.093178
4960805, -4.1659107, -0.05267244, 9.02614
4960815, -4.1180267, -0.10534488, 9.011775
4960825, -4.1611223, -0.090979666, 8.987833
4960835, -4.175488, -0.095768064, 8.939949
4960845, -4.1802764, -0.11971009, 8.992621
4960855, -4.1802764, -0.1436521, 9.02614
4960864, -4.1611223, -0.12449849, 9.059659
4960875, -4.1706996, -0.15801731, 9.064447
4960885, -4.2281604, -0.090979666, 9.074024
4960894, -4.175488, -0.11971009, 9.155427
4960905, -4.2042184, -0.038307227, 9.078813
4960915, -4.1706996, -0.047884032, 9.030929
4960925, -4.146757, -0.04309563, 8.987833
4960935, -4.1515455, 0.01436521, 8.99741
4960945, -4.189853, -0.04309563, 8.916007
4960955, -4.223372, -0.062249243, 8.944737
4960964, -4.3622355, -0.033518825, 8.901642
4960975, -4.213795, 0.01436521, 8.882488
4960985, -4.060566, 0.009576807, 8.839393
4960995, -4.132392, 0.038307227, 8.78672
4961004, -4.012682, 0.06703765, 8.762778
4961015, -4.223372, 0.023942016, 8.690952
4961025, -4.1946416, 0.1388637, 8.619126
4961035, -4.237737, 0.05746084, 8.523358
4961045, -4.3382936, 0.038307227, 8.437167
4961055, -4.333505, 0.05267244, 8.441956
4961064, -4.429273, 0.05267244, 8.413225
4961075, -4.4436383, 0.0047884034, 8.394072
4961085, -4.3861775, 0.019153614, 8.350976
4961095, -4.185065, 0.01436521, 8.312668
4961105, -4.0940847, -0.05746084, 8.274361
4961115, -3.9600096, -0.090979666, 8.283937
4961125, -4.0318356, -0.19153613, 8.355764
4961135, -4.0318356, -0.2681506, 8.51857
4961145, -4.10845, -0.33039984, 8.7292595
4961155, -4.2664676, -0.39264908, 8.887277
4961165, -4.2760444, -0.4309563, 9.006987
4961175, -4.3478703, -0.5746084, 9.198523
4961185, -4.3239284, -0.60812724, 9.275137
4961195, -4.3718123, -0.6464345, 9.375694
4961205, -4.3478703, -0.7134721, 9.414001
4961215, -4.2999864, -0.7374141, 9.471462
4961225, -4.271256, -0.7182605, 9.524135
4961235, -4.213795, -0.80924016, 9.557653
4961245, -4.271256, -0.79487497, 9.476251
4961255, -4.3526587, -0.78050977, 9.404425
4961265, -4.414908, -0.80924016, 9.394848
4961275, -4.5298295, -0.7469909, 9.303867
4961284, -4.620809, -0.770933, 9.26556
4961295, -4.663905, -0.79008657, 9.227253
4961305, -4.6686935, -0.7517793, 9.188946
4961315, -4.5681367, -0.7086837, 9.030929
4961325, -4.4819455, -0.62249243, 9.011775
4961335, -4.4101195, -0.58897364, 8.863335
4961345, -4.381389, -0.51714754, 8.695741
4961355, -4.295198, -0.4357447, 8.604761
4961365, -4.3143516, -0.4309563, 8.542512
4961375, -4.3766007, -0.41180268, 8.413225
4961385, -4.405331, -0.41180268, 8.331821
4961395, -4.5154643, -0.36391866, 8.312668
4961405, -4.55856, -0.39264908, 8.331821
4961415, -4.5920787, -0.33039984, 8.322245
4961425, -4.596867, -0.35434186, 8.288726
4961435, -4.606444, -0.33518824, 8.327033
4961445, -4.534618, -0.31124622, 8.39886
4961455, -4.5058875, -0.30166942, 8.413225
4961465, -4.3957543, -0.2681506, 8.422802
4961475, -4.3143516, -0.24899697, 8.537724
4961485, -4.2185836, -0.24899697, 8.561666
4961495, -4.156334, -0.2681506, 8.561666
4961505, -4.2042184, -0.2777274, 8.676587
4961515, -4.213795, -0.36391866, 8.7771435
4961525, -4.280833, -0.45968673, 8.829816
4961535, -4.2664676, -0.48841715, 8.963891
4961545, -4.2521024, -0.5506664, 8.99741
4961555, -4.2760444, -0.56982, 9.107543
4961565, -4.280833, -0.59376204, 9.174581
4961575, -4.2999864, -0.5650316, 9.581595
4961584, -4.3239284, -0.7230489, 9.260772
4961594, -4.2760444, -0.61291564, 9.428367
4961604, -4.1802764, -0.5506664, 9.500193
4961614, -4.1802764, -0.5793968, 9.23683
4961624, -4.2521024, -0.49799395, 9.064447
4961634, -4.31914, -0.49320555, 8.99741
4961645, -4.4675803, -0.5267244, 8.815451
4961654, -4.6351743, -0.50278234, 8.7053175
4961664, -4.76925, -0.521936, 8.647857
4961674, -4.841076, -0.49799395, 8.647857
4961684, -4.903325, -0.49799395, 8.566454
4961695, -4.927267, -0.47884035, 8.51857
4961704, -4.841076, -0.4261679, 8.508993
4961714, -4.711789, -0.4165911, 8.571242
4961724, -4.5920787, -0.3878607, 8.556877
4961734, -4.4675803, -0.33997664, 8.580819
4961746, -4.453215, -0.34476504, 8.556877
4961754, -4.3861775, -0.34476504, 8.552089
4961764, -4.4819455, -0.37349546, 8.537724
4961774, -4.630386, -0.35434186, 8.585608
4961784, -4.7261543, -0.36870706, 8.710106
4961795, -4.7309427, -0.38307226, 8.662222
4961804, -4.7261543, -0.37828386, 8.63828
4961814, -4.644751, -0.36870706, 8.604761
4961824, -4.596867, -0.36391866, 8.595184
4961834, -4.525041, -0.33039984, 8.647857
4961845, -4.501099, -0.35913026, 8.652645
4961854, -4.525041, -0.34955344, 8.599973
4961864, -4.548983, -0.36391866, 8.504205
4961874, -4.5777135, -0.35913026, 8.494628
4961884, -4.6399627, -0.32561144, 8.595184
4961895, -4.572925, -0.37828386, 8.556877
4961904, -4.525041, -0.33518824, 8.528147
4961914, -4.4675803, -0.30166942, 8.561666
4961924, -4.43885, -0.34476504, 8.647857
4961934, -4.333505, -0.29209262, 8.796297
4961945, -4.3287168, -0.32561144, 8.805874
4961954, -4.343082, -0.33997664, 8.90643
4961964, -4.4005427, -0.33039984, 8.892065
4961974, -4.4580035, -0.36870706, 8.920795
4961984, -4.5681367, -0.36870706, 8.90643
4961995, -4.572925, -0.36870706, 8.882488
4962004, -4.582502, -0.37828386, 8.892065
4962014, -4.596867, -0.33039984, 8.844181
4962024, -4.548983, -0.34476504, 8.796297
4962034, -4.486734, -0.34476504, 8.839393
4962045, -4.5058875, -0.320823, 8.825027
4962054, -4.4484267, -0.272939, 8.791509
4962064, -4.429273, -0.24420857, 8.78672
4962074, -4.4340615, -0.24420857, 8.848969
4962084, -4.501099, -0.25378537, 8.99741
4962095, -4.486734, -0.2825158, 8.973468
4962104, -4.5681367, -0.20111294, 9.02614
4962114, -4.486734, -0.23463176, 8.283937
4962124, -4.6830587, -0.1436521, 8.537724
4962134, -4.223372, -0.1436521, 8.441956
4962145, -4.146757, 0.090979666, 8.322245
4962154, -4.1371803, 0.10534488, 8.37013
4962164, -4.19943, 0.11492168, 8.413225
4962174, -4.2760444, 0.10055647, 8.456321
4962184, -4.3861775, 0.07182605, 8.556877
4962195, -4.462792, 0.076614454, 8.580819
4962204, -4.405331, 0.07182605, 8.580819
4962214, -4.3382936, 0.019153614, 8.480263
4962224, -4.2999864, 0.01436521, 8.475474
4962234, -4.2281604, 0.01436521, 8.494628
4962245, -4.2281604, -0.08619126, 8.528147
4962254, -4.122815, -0.076614454, 8.528147
4962264, -4.209007, -0.15322891, 8.791509
4962274, -4.343082, -0.19632454, 8.820239
4962284, -4.429273, -0.31124622, 8.920795
4962295, -4.4484267, -0.35913026, 9.016563
4962304, -4.486734, -0.33039984, 9.093178
4962314, -4.4963107, -0.37828386, 9.083601
4962324, -4.5298295, -0.4261679, 8.987833
4962334, -4.5920787, -0.39264908, 8.968679
4962347, -4.596867, -0.4309563, 8.939949
4962354, -4.5298295, -0.4261679, 8.963891
4962364, -4.4196963, -0.37828386, 8.901642
4962374, -4.3382936, -0.37349546, 8.853758
4962384, -4.3622355, -0.35434186, 8.978256
4962395, -4.3622355, -0.37828386, 9.059659
4962404, -4.343082, -0.33518824, 9.040505
4962414, -4.3047748, -0.32561144, 8.935161
4962424, -4.3526587, -0.29209262, 8.829816
4962434, -4.3718123, -0.2873042, 8.796297
4962445, -4.414908, -0.2681506, 8.791509
4962454, -4.3766007, -0.22984336, 8.815451
4962464, -4.31914, -0.20111294, 8.7532015
4962474, -4.237737, -0.17238252, 8.748413
4962484, -4.213795, -0.17717093, 8.78672
4962496, -4.189853, -0.19632454, 8.834604
4962504, -4.223372, -0.20111294, 8.901642
4962514, -4.209007, -0.22026655, 8.930372
4962524, -4.213795, -0.21547815, 8.911219
4962534, -4.2521024, -0.20590134, 8.868123
4962544, -4.209007, -0.20111294, 8.839393
4962554, -4.209007, -0.12928689, 8.839393
4962564, -4.175488, -0.1436521, 8.815451
4962574, -4.146757, -0.12928689, 8.762778
4962584, -4.175488, -0.1340753, 8.820239
4962594, -4.213795, -0.11492168, 8.858546
4962604, -4.2281604, -0.11971009, 8.882488
4962614, -4.156334, -0.10055647, 8.825027
4962624, -4.19943, -0.12449849, 8.7292595
4962634, -4.3143516, -0.076614454, 8.734048
4962645, -4.405331, -0.1436521, 8.724471
4962654, -4.453215, -0.19632454, 8.772355
4962664, -4.486734, -0.24420857, 8.810662
4962674, -4.4340615, -0.2777274, 8.772355
4962684, -4.3718123, -0.2873042, 8.801085
4962695, -4.4915223, -0.34476504, 8.767567
4962704, -4.510676, -0.33518824, 8.801085
4962714, -4.5441947, -0.36391866, 8.796297
4962724, -4.534618, -0.35913026, 8.896853
4962734, -4.4675803, -0.33997664, 8.916007
4962744, -4.4675803, -0.33997664, 8.825027
4962754, -4.4436383, -0.29688102, 8.748413
4962764, -4.4101195, -0.29688102, 8.738836
4962774, -4.501099, -0.2681506, 8.724471
4962784, -4.534618, -0.29209262, 8.671799
4962794, -4.644751, -0.30645782, 8.6334915
4962804, -4.663905, -0.2873042, 8.542512
4962814, -4.5777135, -0.2825158, 8.556877
4962824, -4.4915223, -0.23942018, 8.595184
4962834, -4.3957543, -0.25378537, 8.532935
4962844, -4.3287168, -0.19632454, 8.619126
4962854, -4.271256, -0.16280572, 8.6095495
4962864, -4.2664676, -0.17717093, 8.700529
4962874, -4.261679, -0.15322891, 8.695741
4962884, -4.309563, -0.1340753, 8.767567
4962894, -4.2042184, -0.17717093, 8.858546
4962904, -4.146757, -0.15801731, 8.920795
4962914, -4.146757, -0.16759412, 9.083601
4962924, -4.146757, -0.15322891, 9.188946
4962934, -4.036624, -0.1340753, 9.217676
4962944, -3.9504328, -0.14844051, 9.165004
4962954, -3.9504328, -0.12928689, 9.169792
4962964, -3.916914, -0.10055647, 9.160215
4962974, -3.98874, -0.076614454, 9.121908
4962984, -3.9791632, -0.11492168, 9.174581
4962994, -3.9217024, -0.10534488, 9.174581
4963004, -3.9552212, -0.10534488, 9.155427
4963014, -3.9504328, -0.08140286, 9.160215
4963024, -3.940856, -0.04309563, 9.155427
4963034, -3.9743748, -0.02873042, 9.165004
4963044, -3.9743748, 0.038307227, 9.059659
4963054, -3.9695864, 0.08140286, 8.935161
4963064, -4.012682, 0.1436521, 8.820239
4963074, -3.9839516, 0.20111294, 8.734048
4963084, -3.9935284, 0.20111294, 8.676587
4963094, -4.012682, 0.17238252, 8.6813755
4963104, -4.0414124, 0.1388637, 8.714894
4963114, -4.074931, 0.11971009, 8.743625
4963124, -4.0174704, 0.10534488, 8.719683
4963134, -4.027047, 0.095768064, 8.7771435
4963144, -4.0557775, 0.05267244, 8.844181
4963154, -4.1132383, 0.04309563, 8.916007
4963164, -4.1371803, -0.04309563, 8.901642
4963174, -4.1371803, -0.047884032, 8.892065
4963184, -4.2042184, -0.110133275, 8.834604
4963194, -4.285621, -0.15322891, 8.8777
4963204, -4.309563, -0.19632454, 8.858546
4963214, -4.3478703, -0.18195933, 8.762778
4963224, -4.232949, -0.15322891, 8.748413
4963234, -4.285621, -0.11492168, 8.810662
4963244, -4.2521024, -0.095768064, 8.6813755
4963254, -4.261679, -0.06703765, 8.614338
4963264, -4.2760444, -0.05267244, 8.647857
4963274, -4.343082, -0.04309563, 8.662222
4963284, -4.367024, -0.05746084, 8.643068
4963294, -4.357447, -0.02873042, 8.7053175
4963304, -4.333505, -0.062249243, 8.75799
4963314, -4.2904096, -0.076614454, 8.839393
4963324, -4.2425256, -0.06703765, 8.8777
4963334, -4.185065, -0.095768064, 8.968679
4963344, -4.098873, -0.05746084, 9.040505
4963354, -4.027047, -0.12449849, 9.208099
4963364, -3.8881836, -0.110133275, 9.356541
4963374, -3.845088, -0.12928689, 9.404425
4963384, -3.8115692, -0.1340753, 9.41879
4963394, -3.8738184, -0.16280572, 9.337387
4963404, -3.9217024, -0.17238252, 9.299079
4963414, -4.0318356, -0.19153613, 9.260772
4963424, -4.189853, -0.22984336, 9.131485
4963434, -4.256891, -0.18195933, 9.006987
4963445, -4.256891, -0.17717093, 8.848969
4963454, -4.280833, -0.1436521, 8.700529
4963464, -4.256891, -0.1340753, 8.6334915
4963474, -4.237737, -0.07182605, 8.499416
4963484, -4.213795, -0.02873042, 8.51857
4963494, -4.213795, -0.02873042, 8.504205
4963504, -4.31914, -0.0047884034, 8.6574335
4963514, -4.3239284, 0.033518825, 8.738836
4963524, -4.261679, 0.06703765, 8.714894
4963534, -4.084508, 0.11971009, 8.647857
4963544, -3.9983168, 0.15322891, 8.623915
4963554, -3.9935284, 0.11971009, 8.614338
4963564, -3.9743748, 0.11492168, 8.7053175
4963574, -3.9983168, 0.08619126, 8.834604
4963584, -3.9504328, 0.05746084, 8.916007
4963594, -4.0078936, -0.02873042, 9.088389
4963604, -4.074931, -0.05746084, 9.136273
4963614, -4.074931, -0.08619126, 9.141062
4963624, -4.0701427, -0.17717093, 9.169792
4963634, -4.0557775, -0.12449849, 9.165004
4963645, -4.012682, -0.15801731, 9.251195
4963654, -3.9695864, -0.11492168, 9.212888
4963664, -4.050989, -0.12449849, 9.174581
4963674, -4.0653543, -0.11492168, 9.155427
4963684, -4.0414124, -0.11971009, 9.059659
4963696, -4.1132383, -0.11971009, 9.02614
4963704, -4.074931, -0.1340753, 9.02614
4963714, -4.003105, -0.15801731, 8.987833
4963724, -3.9935284, -0.06703765, 8.892065
4963734, -4.0174704, 0.0047884034, 8.930372
4963746, -3.9504328, 0.009576807, 8.863335
4963754, -4.0414124, 0.06703765, 8.853758
4963764, -4.0557775, -0.01436521, 8.772355
4963774, -4.1132383, -0.019153614, 8.872911
4963784, -4.1515455, -0.08140286, 8.939949
4963795, -4.247314, -0.07182605, 8.968679
4963804, -4.256891, -0.076614454, 8.896853
4963814, -4.209007, -0.076614454, 8.829816
4963824, -4.1515455, -0.11492168, 8.781932
4963834, -4.0557775, -0.10055647, 8.762778
4963846, -4.122815, -0.12449849, 8.844181
4963854, -4.132392, -0.07182605, 8.935161
4963864, -4.122815, -0.11971009, 8.99741
4963874, -4.1180267, -0.04309563, 9.074024
4963884, -4.1132383, -0.08619126, 8.959103
4963897, -4.146757, -0.090979666, 8.834604
4963904, -4.2425256, -0.07182605, 8.7771435
4963914, -4.31914, -0.08619126, 8.805874
4963924, -4.333505, -0.062249243, 8.858546
4963934, -4.256891, -0.076614454, 8.944737
4963946, -4.132392, -0.11971009, 8.930372
4963954, -4.074931, -0.090979666, 8.853758
4963964, -4.050989, -0.047884032, 8.882488
4963974, -4.10845, -0.08619126, 8.848969
4963984, -4.0892963, -0.02873042, 8.839393
4963995, -4.132392, 0.033518825, 8.820239
4964004, -4.0653543, 0.04309563, 8.738836
4964014, -4.0318356, 0.06703765, 8.686164
4964024, -4.0318356, 0.047884032, 8.7292595
4964034, -4.10845, 0.0047884034, 8.820239
4964045, -4.185065, -0.02873042, 9.078813
4964054, -4.0797195, -0.07182605, 9.193734
4964064, -4.084508, -0.110133275, 9.279925
4964074, -4.0222588, -0.08619126, 9.394848
4964084, -4.0174704, -0.10534488, 9.3421755
4964095, -4.0414124, -0.12449849, 9.241618
4964104, -3.9983168, -0.10534488, 9.093178
4964114, -3.9791632, -0.07182605, 8.930372
4964128, -3.9552212, -0.08140286, 8.78672
4964134, -4.0797195, -0.038307227, 8.791509
4964145, -4.1371803, -0.090979666, 8.820239
4964154, -4.271256, -0.02873042, 8.896853
4964164, -4.247314, -0.06703765, 8.925584
4964174, -4.1946416, -0.019153614, 8.920795
4964184, -4.1802764, 0.0047884034, 8.930372
4964195, -4.122815, -0.0047884034, 9.021352
4964204, -4.098873, 0.01436521, 8.992621
4964214, -4.0940847, 0.04309563, 9.02614
4964227, -4.0797195, 0.062249243, 9.045294
4964234, -4.074931, -0.01436521, 9.030929
4964244, -4.10845, -0.019153614, 8.944737
4964254, -4.0653543, 0.05267244, 8.853758
4964264, -4.060566, 0.07182605, 8.7771435
4964282, -4.1132383, 0.033518825, 8.734048
4964284, -4.185065, 0.05267244, 8.7292595
4964294, -4.232949, 0.07182605, 8.772355
4964304, -4.237737, 0.047884032, 8.820239
4964314, -4.175488, 0.062249243, 8.825027
4964328, -4.185065, 0.047884032, 8.868123
4964334, -4.1036615, 0.01436521, 8.853758
4964346, -4.1036615, 0.02873042, 8.791509
4964354, -4.1036615, -0.02873042, 8.820239
4964364, -4.2425256, -0.01436521, 8.887277
4964378, -4.2760444, 0.023942016, 8.944737
4964384, -4.2904096, 0.02873042, 8.959103
4964397, -4.3239284, 0.009576807, 8.968679
4964404, -4.2425256, 0.02873042, 8.930372
4964414, -4.185065, -0.02873042, 8.973468
4964428, -4.122815, 0.04309563, 9.069236
4964434, -4.074931, 0.02873042, 9.035717
4964445, -4.1180267, 0.076614454, 9.064447
4964454, -4.1659107, 0.06703765, 9.021352
4964464, -4.185065, 0.04309563, 8.944737
4964478, -4.19943, 0.033518825, 8.978256
4964484, -4.2281604, 0.01436521, 8.916007
4964495, -4.271256, -0.019153614, 8.882488
4964504, -4.280833, 0.019153614, 8.925584
4964514, -4.357447, 0.009576807, 8.834604
4964529, -4.367024, 0.038307227, 8.959103
4964534, -4.4340615, 0.10534488, 8.896853
4964545, -4.367024, 0.15801731, 8.734048
4964554, -4.256891, 0.23942018, 8.6095495
4964564, -4.1515455, 0.23942018, 8.552089
4964574, -4.132392, 0.22026655, 8.48984
4964584, -4.209007, 0.24899697, 8.456321
4964595, -4.185065, 0.24899697, 8.523358
4964604, -4.1371803, 0.2777274, 8.595184
4964614, -4.0940847, 0.2825158, 8.652645
4964628, -4.1515455, 0.21547815, 8.714894
4964634, -4.2281604, 0.23942018, 8.858546
4964644, -4.256891, 0.15322891, 9.050082
4964654, -4.237737, 0.15322891, 9.160215
4964664, -4.223372, 0.16759412, 9.14585
4964681, -4.132392, 0.12449849, 9.074024
4964684, -4.185065, 0.16280572, 8.99741
4964694, -4.1371803, 0.18195933, 8.925584
4964704, -4.084508, 0.22026655, 8.815451
4964714, -4.0701427, 0.24420857, 8.738836
4964727, -4.1706996, 0.22984336, 8.6334915
4964734, -4.2760444, 0.2633622, 8.686164
4964744, -4.285621, 0.2633622, 8.748413
4964754, -4.237737, 0.24420857, 8.829816
4964764, -4.189853, 0.18674773, 8.968679
4964777, -4.213795, 0.19632454, 9.040505
4964784, -4.213795, 0.19153613, 8.939949
4964794, -4.189853, 0.21068975, 8.987833
4964804, -4.209007, 0.19153613, 9.006987
4964814, -4.146757, 0.19632454, 8.8777
4964827, -4.1132383, 0.22026655, 8.801085
4964834, -4.050989, 0.20590134, 8.820239
4964844, -4.0653543, 0.21547815, 8.896853
4964854, -4.0701427, 0.21068975, 8.949526
4964864, -4.1371803, 0.16759412, 9.016563
4964877, -4.1611223, 0.12928689, 9.14585
4964884, -4.247314, 0.05746084, 9.165004
4964894, -4.3143516, 0.07182605, 9.069236
4964904, -4.271256, 0.07182605, 8.983045
4964914, -4.280833, 0.10534488, 8.848969
4964927, -4.256891, 0.12928689, 8.796297
4964934, -4.237737, 0.1436521, 8.7532015
4964944, -4.156334, 0.22026655, 8.781932
4964954, -4.256891, 0.21547815, 8.690952
4964964, -4.280833, 0.22026655, 8.710106
4964977, -4.2521024, 0.20590134, 8.820239
4964984, -4.271256, 0.23463176, 8.853758
4964994, -4.1802764, 0.21547815, 8.75799
4965004, -4.0462008, 0.22505496, 8.748413
4965014, -4.0174704, 0.24899697, 8.791509
4965026, -4.036624, 0.2777274, 8.858546
4965034, -4.1132383, 0.2873042, 8.8777
4965044, -4.2042184, 0.320823, 8.810662
4965054, -4.209007, 0.37828386, 8.767567
4965064, -4.0892963, 0.39264908, 8.767567
4965074, -4.10845, 0.35913026, 8.887277
4965084, -4.1706996, 0.34955344, 8.90643
4965094, -4.122815, 0.35913026, 8.911219
4965104, -4.1180267, 0.35434186, 8.90643
4965114, -4.0557775, 0.3878607, 8.738836
4965124, -4.036624, 0.35913026, 8.6813755
4965134, -4.074931, 0.33518824, 8.75799
4965144, -4.1515455, 0.25857377, 8.963891
4965154, -4.247314, 0.17717093, 9.14585
4965164, -4.237737, 0.15801731, 9.227253
4965177, -4.185065, 0.10534488, 9.212888
4965184, -4.1419687, 0.1436521, 9.26556
4965194, -4.1659107, 0.095768064, 9.294291
4965204, -4.1419687, 0.08140286, 9.179369
4965214, -4.213795, 0.05746084, 9.088389
4965227, -4.3287168, 0.023942016, 9.002198
4965234, -4.3718123, 0.033518825, 8.848969
4965244, -4.3957543, 0.07182605, 8.858546
4965254, -4.295198, 0.14844051, 8.848969
4965264, -4.295198, 0.1388637, 8.78672
4965276, -4.280833, 0.20111294, 8.738836
4965284, -4.295198, 0.25378537, 8.7292595
4965294, -4.2425256, 0.29688102, 8.7053175
4965304, -4.295198, 0.30166942, 8.686164
4965314, -4.271256, 0.2825158, 8.7053175
4965326, -4.280833, 0.33997664, 8.748413
4965334, -4.261679, 0.35434186, 8.820239
4965344, -4.3143516, 0.34955344, 8.734048
4965354, -4.271256, 0.33997664, 8.686164
4965364, -4.280833, 0.33518824, 8.595184
4965377, -4.2042184, 0.33039984, 8.585608
4965384, -4.1706996, 0.31124622, 8.63828
4965394, -4.2042184, 0.29209262, 8.738836
4965404, -4.2904096, 0.2777274, 8.839393
4965414, -4.2904096, 0.21547815, 8.863335
4965427, -4.3382936, 0.22984336, 8.939949
4965434, -4.247314, 0.21068975, 8.944737
4965444, -4.156334, 0.20590134, 8.887277
4965454, -4.232949, 0.18674773, 8.911219
4965464, -4.3239284, 0.22026655, 9.030929
4965481, -4.3766007, 0.16280572, 9.016563
4965484, -4.3382936, 0.17238252, 8.963891
4965494, -4.2999864, 0.23942018, 8.848969
4965504, -4.189853, 0.31603462, 8.738836
4965514, -4.1659107, 0.24420857, 8.595184
4965526, -4.2042184, 0.2633622, 8.6095495
4965534, -4.2999864, 0.31124622, 8.652645
4965544, -4.3622355, 0.31603462, 8.623915
4965554, -4.3143516, 0.33039984, 8.595184
4965564, -4.237737, 0.31124622, 8.513782
4965576, -4.280833, 0.25378537, 8.528147
4965584, -4.3382936, 0.24899697, 8.571242
4965594, -4.3239284, 0.22026655, 8.619126
4965604, -4.3766007, 0.21068975, 8.743625
4965614, -4.3526587, 0.17717093, 8.892065
4965626, -4.232949, 0.19632454, 9.222465
4965634, -4.175488, 0.095768064, 9.782708
4965644, -4.0701427, -0.047884032, 10.534488
4965654, -4.084508, -0.18195933, 10.840945
4965664, -3.8163576, -0.18674773, 10.0029745
4965676, -3.845088, 0.038307227, 9.14585
4965684, -4.0174704, 0.08619126, 8.566454
4965694, -4.19943, 0.16759412, 8.394072
4965704, -4.462792, 0.21068975, 8.317456
4965714, -4.663905, 0.21068975, 8.207323
4965724, -4.6686935, 0.24899697, 8.149862
4965734, -4.7740383, 0.2777274, 8.178593
4965744, -4.793192, 0.31603462, 8.2169
4965754, -4.7500963, 0.29688102, 8.293514
4965764, -4.654328, 0.33518824, 8.360553
4965775, -4.596867, 0.33518824, 8.432379
4965784, -4.4580035, 0.40701428, 8.461109
4965794, -4.3239284, 0.40222588, 8.595184
4965804, -4.223372, 0.39264908, 8.690952
4965814, -4.1276035, 0.45968673, 8.748413
4965824, -4.0557775, 0.45010993, 8.887277
4965835, -4.027047, 0.4405331, 9.011775
4965844, -4.036624, 0.4405331, 9.059659
4965855, -4.0222588, 0.39743748, 9.107543
4965865, -3.8642416, 0.45968673, 9.107543
4965874, -3.8115692, 0.4357447, 9.11712
4965884, -3.845088, 0.40222588, 9.083601
4965894, -3.821146, 0.4357447, 9.083601
4965904, -3.7972038, 0.4309563, 9.050082
4965915, -3.8402996, 0.4261679, 9.11712
4965924, -3.821146, 0.4261679, 9.102755
4965935, -3.8594532, 0.49320555, 9.155427
4965945, -3.8642416, 0.46926352, 9.093178
4965955, -3.9312792, 0.46926352, 9.097966
4965965, -3.9935284, 0.4357447, 9.011775
4965974, -4.0078936, 0.45489833, 8.90643
4965985, -4.027047, 0.4309563, 8.872911
4965995, -3.9983168, 0.47405192, 8.858546
4966004, -3.9456444, 0.44532153, 8.848969
4966015, -3.9504328, 0.41180268, 8.892065
4966025, -3.916914, 0.4309563, 8.916007
4966035, -3.940856, 0.41180268, 8.983045
4966044, -3.9600096, 0.38307226, 9.045294
4966055, -3.9552212, 0.37828386, 9.083601
4966065, -3.916914, 0.35913026, 9.045294
4966075, -4.0222588, 0.39264908, 9.045294
4966085, -4.0892963, 0.31124622, 9.064447
4966095, -4.1946416, 0.35434186, 9.021352
4966105, -4.2042184, 0.33518824, 9.02614
4966115, -4.185065, 0.33997664, 8.954314
4966125, -4.1515455, 0.30645782, 8.90643
4966135, -4.1180267, 0.30166942, 8.901642
4966145, -4.156334, 0.2777274, 8.916007
4966155, -4.1706996, 0.2777274, 8.935161
4966165, -4.1611223, 0.30645782, 9.011775
4966175, -4.189853, 0.31603462, 8.978256
4966185, -4.1802764, 0.30166942, 8.892065
4966195, -4.185065, 0.33039984, 8.805874
4966205, -4.1659107, 0.34955344, 8.748413
4966215, -4.1946416, 0.35434186, 8.714894
4966225, -4.209007, 0.35434186, 8.7771435
4966235, -4.271256, 0.29688102, 8.738836
4966245, -4.223372, 0.40701428, 8.7292595
4966255, -4.1946416, 0.41180268, 8.762778
4966265, -4.084508, 0.34955344, 8.75799
4966275, -4.003105, 0.40701428, 8.734048
4966285, -4.0222588, 0.4309563, 8.75799
4966295, -3.9073372, 0.40701428, 8.834604
4966305, -3.940856, 0.36870706, 8.916007
4966315, -3.8881836, 0.320823, 8.963891
4966325, -3.8259344, 0.23942018, 8.973468
4966335, -3.8498764, 0.1340753, 8.99741
4966345, -3.9695864, 0.1436521, 9.045294
4966355, -4.1132383, 0.1436521, 9.126697
4966365, -4.2042184, 0.12449849, 9.126697
4966375, -4.343082, 0.08140286, 9.155427
4966385, -4.414908, 0.1388637, 9.179369
4966395, -4.510676, 0.16759412, 9.165004
4966405, -4.462792, 0.23942018, 9.078813
4966415, -4.390966, 0.3878607, 9.083601
4966425, -4.1946416, 0.50278234, 9.002198
4966435, -4.036624, 0.5363012, 8.829816
4966445, -3.916914, 0.5554548, 8.810662
4966455, -3.9312792, 0.41180268, 8.887277
4966465, -3.9121256, 0.4165911, 8.863335
4966475, -3.9360676, 0.36391866, 8.90643
4966485, -3.916914, 0.30166942, 8.968679
4966495, -3.9935284, 0.30645782, 8.978256
4966505, -3.98874, 0.31124622, 8.99741
4966515, -3.9600096, 0.33997664, 9.040505
4966525, -3.916914, 0.37349546, 9.030929
4966535, -3.8977604, 0.39743748, 9.006987
4966545, -3.8546648, 0.39264908, 8.916007
4966555, -3.9073372, 0.4165911, 8.781932
4966565, -3.8881836, 0.40222588, 8.710106
4966575, -3.8259344, 0.44532153, 8.662222
4966585, -3.86903, 0.4357447, 8.652645
4966595, -3.8786068, 0.3878607, 8.686164
4966605, -3.892972, 0.38307226, 8.772355
4966615, -3.8881836, 0.41180268, 8.834604
4966625, -3.9743748, 0.46447513, 8.839393
4966635, -3.964798, 0.4405331, 8.882488
4966645, -3.9839516, 0.46926352, 8.930372
4966655, -3.98874, 0.4165911, 8.983045
4966665, -3.9456444, 0.4405331, 9.002198
4966675, -3.9073372, 0.39743748, 8.983045
4966685, -3.8881836, 0.34955344, 9.093178
4966695, -3.8642416, 0.30166942, 9.107543
4966705, -3.9264908, 0.25378537, 9.121908
4966715, -3.9695864, 0.23942018, 9.141062
4966725, -3.9073372, 0.20590134, 9.208099
4966735, -3.9360676, 0.1340753, 9.212888
4966745, -3.9743748, 0.19153613, 9.217676
4966755, -3.9552212, 0.11971009, 9.198523
4966765, -4.0892963, 0.18195933, 9.093178
4966775, -4.0653543, 0.18195933, 9.217676
4966785, -4.0557775, 0.14844051, 9.3182335
4966795, -4.060566, 0.16280572, 9.26556
4966805, -4.0653543, 0.15801731, 9.222465
4966815, -4.036624, 0.18674773, 9.165004
4966825, -4.084508, 0.15801731, 9.006987
4966835, -4.060566, 0.21547815, 8.983045
4966845, -4.1515455, 0.21547815, 8.925584
4966855, -4.1419687, 0.2777274, 8.829816
4966865, -4.1371803, 0.2825158, 8.748413
4966875, -4.1706996, 0.29209262, 8.671799
4966885, -4.1515455, 0.33997664, 8.714894
4966895, -4.1036615, 0.38307226, 8.647857
4966905, -4.0701427, 0.33039984, 8.623915
4966915, -3.9935284, 0.35913026, 8.686164
4966925, -3.9983168, 0.34476504, 8.724471
4966935, -3.9695864, 0.34955344, 8.805874
4966945, -3.940856, 0.31603462, 8.858546
4966955, -3.9264908, 0.29688102, 8.930372
4966965, -3.9217024, 0.29688102, 9.006987
4966975, -3.9456444, 0.29209262, 9.045294
4966985, -3.9983168, 0.2777274, 9.112331
4966995, -3.9935284, 0.24899697, 9.169792
4967005, -3.9360676, 0.2777274, 9.198523
4967015, -3.940856, 0.25857377, 9.169792
4967025, -3.8881836, 0.272939, 9.069236
4967035, -3.8067808, 0.2681506, 9.045294
4967045, -3.8163576, 0.2873042, 9.035717
4967055, -3.86903, 0.31124622, 8.963891
4967065, -3.8642416, 0.31603462, 8.954314
4967075, -3.8881836, 0.31124622, 8.930372
4967085, -3.9504328, 0.29209262, 8.930372
4967095, -3.9264908, 0.31603462, 8.90643
4967105, -3.9935284, 0.30645782, 8.987833
4967115, -4.0174704, 0.272939, 9.030929
4967125, -4.012682, 0.22984336, 9.016563
4967135, -3.9983168, 0.21547815, 8.987833
4967145, -3.9600096, 0.23942018, 9.02614
4967155, -3.9791632, 0.23463176, 8.963891
4967165, -3.9695864, 0.21068975, 8.920795
4967175, -4.0078936, 0.22984336, 8.896853
4967185, -4.0797195, 0.21068975, 8.959103
4967195, -4.1802764, 0.20111294, 9.006987
4967205, -4.1611223, 0.17238252, 8.983045
4967215, -4.156334, 0.15322891, 8.920795
4967225, -4.0797195, 0.17238252, 8.920795
4967235, -4.050989, 0.18674773, 8.978256
4967245, -4.050989, 0.20111294, 8.920795
4967255, -4.027047, 0.18195933, 8.920795
4967265, -4.036624, 0.18674773, 8.868123
4967275, -4.122815, 0.17238252, 8.825027
4967285, -4.1036615, 0.19632454, 8.748413
4967295, -4.1419687, 0.17717093, 8.78672
4967305, -4.209007, 0.18674773, 8.839393
4967315, -4.189853, 0.18195933, 8.796297
4967325, -4.1371803, 0.23463176, 8.8777
4967335, -4.1036615, 0.18195933, 8.90643
4967345, -4.0414124, 0.18674773, 8.925584
4967355, -4.003105, 0.19632454, 8.892065
4967365, -3.9983168, 0.16759412, 8.872911
4967375, -4.012682, 0.14844051, 8.815451
4967385, -4.122815, 0.21547815, 8.781932
4967395, -4.0892963, 0.17238252, 8.911219
4967405, -4.0414124, 0.12449849, 9.030929
4967415, -3.9360676, 0.15322891, 9.059659
4967425, -3.9552212, 0.16280572, 9.083601
4967435, -3.916914, 0.1388637, 9.160215
4967445, -3.9217024, 0.14844051, 9.232041
4967455, -3.8786068, 0.14844051, 9.217676
4967465, -3.916914, 0.110133275, 9.184157
4967475, -4.012682, 0.15322891, 9.179369
4967485, -4.012682, 0.18674773, 9.136273
4967495, -4.036624, 0.15322891, 9.093178
4967505, -4.0797195, 0.14844051, 9.074024
4967515, -4.1036615, 0.17717093, 9.045294
4967525, -4.0414124, 0.20111294, 9.050082
4967535, -3.9695864, 0.21547815, 8.949526
4967545, -3.9073372, 0.25378537, 8.916007
4967555, -3.9456444, 0.24420857, 8.868123
4967565, -3.916914, 0.2681506, 8.887277
4967575, -3.9360676, 0.23463176, 8.868123
4967585, -3.9360676, 0.21547815, 8.839393
4967595, -4.012682, 0.2633622, 8.872911
4967605, -4.012682, 0.23942018, 8.887277
4967615, -3.9983168, 0.24899697, 8.939949
4967625, -3.9983168, 0.24420857, 8.949526
4967635, -3.9983168, 0.22026655, 8.987833
4967645, -3.98874, 0.2633622, 9.069236
4967655, -3.9791632, 0.24420857, 9.059659
4967665, -3.9217024, 0.2681506, 9.02614
4967675, -3.9456444, 0.272939, 8.968679
4967686, -3.9025488, 0.24899697, 8.868123
4967695, -3.9264908, 0.23942018, 8.882488
4967705, -3.9360676, 0.24899697, 8.853758
4967715, -3.9217024, 0.20590134, 8.796297
4967725, -3.9456444, 0.21068975, 8.815451
4967735, -3.9839516, 0.18674773, 8.916007
4967745, -4.0557775, 0.20111294, 9.002198
4967755, -4.0653543, 0.22026655, 9.016563
4967765, -4.0462008, 0.18674773, 9.131485
4967775, -4.027047, 0.17238252, 9.150639
4967785, -4.0078936, 0.17717093, 9.155427
4967795, -3.9504328, 0.21547815, 9.165004
4967805, -3.9073372, 0.24420857, 9.150639
4967815, -3.9073372, 0.18674773, 9.088389
4967825, -3.9264908, 0.22026655, 9.074024
4967835, -3.9217024, 0.19632454, 9.021352
4967845, -3.9360676, 0.25857377, 8.949526
4967855, -3.9552212, 0.20590134, 8.872911
4967864, -3.9695864, 0.25378537, 8.930372
4967875, -3.9983168, 0.23463176, 8.820239
4967885, -4.0078936, 0.25857377, 8.8777
4967895, -4.003105, 0.2825158, 8.882488
4967905, -4.012682, 0.2633622, 8.882488
4967915, -4.027047, 0.2873042, 8.916007
4967925, -4.060566, 0.272939, 8.872911
4967935, -4.0078936, 0.25378537, 8.868123
4967945, -4.003105, 0.25857377, 8.8777
4967955, -3.9695864, 0.25378537, 8.920795
4967965, -3.9264908, 0.24420857, 8.887277
4967975, -3.8977604, 0.24899697, 8.882488
4967985, -3.9312792, 0.23463176, 8.968679
4967995, -4.003105, 0.21547815, 8.968679
4968005, -4.003105, 0.17717093, 9.021352
4968015, -4.027047, 0.18674773, 9.074024
4968025, -4.027047, 0.18195933, 9.112331
4968035, -4.0078936, 0.15801731, 9.165004
4968045, -4.0318356, 0.1436521, 9.198523
4968055, -4.0222588, 0.15801731, 9.188946
4968065, -3.9552212, 0.22984336, 9.107543
4968075, -3.9264908, 0.24420857, 9.054871
4968086, -3.9743748, 0.24899697, 8.992621
4968095, -4.003105, 0.2633622, 8.939949
4968105, -3.964798, 0.25857377, 8.90643
4968115, -4.027047, 0.25857377, 8.853758
4968125, -4.0462008, 0.2777274, 8.839393
4968135, -4.084508, 0.272939, 8.825027
4968145, -4.036624, 0.25378537, 8.767567
4968155, -4.0222588, 0.23942018, 8.738836
4968165, -4.027047, 0.23463176, 8.801085
4968175, -4.0222588, 0.22984336, 8.825027
4968185, -4.0222588, 0.20590134, 8.848969
4968195, -4.0653543, 0.23942018, 8.882488
4968205, -4.1036615, 0.22984336, 8.882488
4968215, -4.189853, 0.22026655, 8.901642
4968225, -4.175488, 0.22505496, 8.959103
4968235, -4.1276035, 0.21547815, 8.978256
4968245, -4.1036615, 0.17717093, 8.959103
4968255, -4.0174704, 0.22984336, 8.992621
4968265, -3.9839516, 0.22984336, 9.002198
4968275, -3.9312792, 0.25857377, 8.911219
4968285, -3.9695864, 0.30166942, 8.872911
4968295, -3.9600096, 0.33039984, 8.762778
4968305, -3.9312792, 0.30645782, 8.676587
4968315, -3.8786068, 0.2873042, 8.6574335
4968325, -3.8786068, 0.2777274, 8.662222
4968335, -3.9791632, 0.272939, 8.791509
4968345, -3.9791632, 0.23942018, 8.916007
4968355, -3.9791632, 0.25378537, 8.99741
4968365, -3.9791632, 0.2681506, 9.050082
4968375, -3.98874, 0.25378537, 9.093178
4968385, -3.8977604, 0.22984336, 9.016563
4968395, -3.9360676, 0.25378537, 8.963891
4968405, -3.940856, 0.23942018, 8.992621
4968415, -3.9504328, 0.2825158, 9.021352
4968425, -3.9552212, 0.20590134, 9.02614
4968435, -3.98874, 0.21547815, 9.093178
4968445, -3.9695864, 0.19632454, 9.188946
4968455, -3.9121256, 0.16759412, 9.26556
4968465, -3.9552212, 0.07182605, 9.23683
4968475, -3.9504328, 0.12928689, 9.270349
4968485, -3.9839516, 0.07182605, 9.23683
4968495, -4.0414124, 0.11971009, 9.212888
4968505, -4.1419687, 0.023942016, 9.179369
4968515, -4.280833, 0.047884032, 9.141062
4968525, -4.381389, -0.062249243, 9.150639
4968535, -4.43885, -0.10055647, 9.11712
4968545, -4.4436383, -0.11492168, 9.136273
4968555, -4.486734, -0.08619126, 9.016563
4968565, -4.477157, -0.08619126, 8.973468
4968575, -4.4675803, -0.023942016, 8.844181
4968585, -4.462792, 0.019153614, 8.791509
4968595, -4.4675803, 0.0047884034, 8.724471
4968605, -4.477157, 0.023942016, 8.690952
4968615, -4.4963107, 0.023942016, 8.576031
