BOOT_TIME_EPOCH 1546494242777
BOOT_UPTIME_MILLIS 135913
time, accel_x, accel_y, accel_z
135948, 0.023942016, -0.34955344, 9.768343
135949, 0.02873042, -0.35434186, 9.768343
135950, 0.023942016, -0.33039984, 9.753978
135950, 0.01436521, -0.34476504, 9.787497
135950, 0.02873042, -0.33039984, 9.782708
135951, 0.023942016, -0.35913026, 9.768343
135960, 0.019153614, -0.35434186, 9.739613
135970, 0.023942016, -0.31603462, 9.773131
135981, 0.033518825, -0.33997664, 9.77792
135990, 0.023942016, -0.33518824, 9.730036
136000, 0.0047884034, -0.320823, 9.758766
136010, 0.019153614, -0.33518824, 9.734824
136020, 0.019153614, -0.34955344, 9.792285
136030, 0.038307227, -0.34955344, 9.773131
136040, 0.023942016, -0.320823, 9.749189
136050, 0.02873042, -0.35434186, 9.773131
136060, -0.01436521, -0.33997664, 9.77792
136070, 0.019153614, -0.33518824, 9.768343
136081, 0.019153614, -0.320823, 9.77792
136090, -0.0047884034, -0.35913026, 9.768343
136100, 0.01436521, -0.34476504, 9.739613
136111, 0.01436521, -0.36391866, 9.782708
136120, -0.009576807, -0.34955344, 9.773131
136130, -0.01436521, -0.33997664, 9.749189
136141, 0.009576807, -0.33518824, 9.763555
136150, 0.033518825, -0.34955344, 9.758766
136160, 0.02873042, -0.37828386, 9.792285
136170, 0.0047884034, -0.320823, 9.734824
136180, 0.01436521, -0.36391866, 9.744401
136190, -0.01436521, -0.36870706, 9.787497
136200, 0.04309563, -0.37828386, 9.782708
136210, 0.009576807, -0.35434186, 9.758766
136220, 0.02873042, -0.33997664, 9.763555
136230, 0.01436521, -0.320823, 9.749189
136241, 0.0047884034, -0.38307226, 9.758766
136251, 0.01436521, -0.34476504, 9.782708
136260, 0.04309563, -0.33518824, 9.744401
136270, 0.01436521, -0.35434186, 9.792285
136280, 0.019153614, -0.35913026, 9.768343
136290, 0.009576807, -0.34955344, 9.773131
136301, 0.01436521, -0.35913026, 9.768343
136311, 0.033518825, -0.36391866, 9.763555
136321, 0.01436521, -0.36391866, 9.763555
136330, -0.02873042, -0.35434186, 9.763555
136340, 0.0047884034, -0.34476504, 9.749189
136351, 0.023942016, -0.35434186, 9.763555
136362, 0.023942016, -0.33039984, 9.787497
136370, 0.009576807, -0.34955344, 9.768343
136381, 0.009576807, -0.36391866, 9.749189
136393, 0.023942016, -0.34476504, 9.763555
136400, 0.009576807, -0.33518824, 9.768343
136410, 0.02873042, -0.32561144, 9.744401
136420, 0.009576807, -0.36391866, 9.744401
136431, 0.0047884034, -0.37349546, 9.782708
136441, 0.009576807, -0.35434186, 9.763555
136451, 0.009576807, -0.37349546, 9.782708
136461, -0.0047884034, -0.33997664, 9.773131
136470, 0.04309563, -0.33997664, 9.749189
136481, 0.047884032, -0.2825158, 9.77792
136490, 0.05267244, -0.30645782, 9.753978
136502, 0.009576807, -0.33039984, 9.749189
136514, 0.038307227, -0.35913026, 9.77792
136521, 0.02873042, -0.36391866, 9.768343
136532, 0.038307227, -0.34476504, 9.763555
136548, 0.0047884034, -0.31603462, 9.749189
136551, 0.02873042, -0.30645782, 9.739613
136565, 0.0047884034, -0.36391866, 9.753978
136571, -0.033518825, -0.40222588, 9.782708
136582, -0.02873042, -0.41180268, 9.768343
136598, -0.047884032, -0.36391866, 9.758766
136602, 0.009576807, -0.33039984, 9.773131
136614, 0.023942016, -0.34476504, 9.773131
136621, 0.02873042, -0.34476504, 9.753978
136631, 0.033518825, -0.32561144, 9.768343
136647, 0.04309563, -0.33518824, 9.758766
136651, 0.019153614, -0.33039984, 9.753978
136663, 0.02873042, -0.41180268, 9.773131
136671, 0.009576807, -0.39743748, 9.753978
136682, -0.023942016, -0.36391866, 9.753978
136697, 0.009576807, -0.37828386, 9.792285
136701, -0.019153614, -0.36391866, 9.787497
136711, 0.01436521, -0.36391866, 9.739613
136720, 0.0047884034, -0.35913026, 9.758766
136731, 0.023942016, -0.35913026, 9.749189
136744, 0.009576807, -0.33518824, 9.730036
136750, 0.02873042, -0.35434186, 9.763555
136761, 0.023942016, -0.33518824, 9.782708
136770, 0.047884032, -0.37349546, 9.77792
136781, 0.033518825, -0.37349546, 9.782708
136795, 0.033518825, -0.36391866, 9.753978
136801, 0.0047884034, -0.34476504, 9.758766
136811, -0.019153614, -0.36391866, 9.763555
136821, 0.0047884034, -0.36391866, 9.763555
136831, 0.019153614, -0.33997664, 9.758766
136847, 0.023942016, -0.31603462, 9.758766
136851, 0.038307227, -0.35434186, 9.744401
136864, 0.033518825, -0.31603462, 9.763555
136871, 0.009576807, -0.35913026, 9.763555
136881, 0.062249243, -0.36391866, 9.749189
136898, 0.05746084, -0.35434186, 9.753978
136901, 0.04309563, -0.35913026, 9.753978
136914, 0.0047884034, -0.37349546, 9.792285
136921, 0.023942016, -0.39264908, 9.787497
136932, -0.02873042, -0.39264908, 9.763555
136947, -0.02873042, -0.34476504, 9.744401
136951, -0.0047884034, -0.35913026, 9.758766
136964, -0.01436521, -0.37349546, 9.739613
136971, 0.023942016, -0.35434186, 9.753978
136982, 0.033518825, -0.320823, 9.763555
136998, 0.009576807, -0.34955344, 9.801862
137002, 0.023942016, -0.33039984, 9.730036
137013, 0.023942016, -0.320823, 9.758766
137021, 0.019153614, -0.31603462, 9.734824
137031, -0.009576807, -0.34476504, 9.749189
137046, 0.090979666, -0.38307226, 9.720459
137051, -0.07182605, -0.29688102, 9.89763
137063, 0.08619126, -0.32561144, 9.715671
137071, -0.10055647, -0.36391866, 9.825804
137082, 0.047884032, -0.41180268, 9.710882
137096, 0.0047884034, -0.30166942, 9.768343
137102, -0.0047884034, -0.39264908, 9.773131
137113, -0.04309563, -0.35434186, 9.782708
137122, -0.009576807, -0.33518824, 9.763555
137131, 0.01436521, -0.33518824, 9.77792
137147, 0.038307227, -0.34955344, 9.773131
137151, 0.02873042, -0.31124622, 9.758766
137162, -0.01436521, -0.37828386, 9.763555
137171, -0.019153614, -0.37349546, 9.744401
137182, -0.047884032, -0.37349546, 9.787497
137196, -0.02873042, -0.40222588, 9.763555
137201, -0.033518825, -0.39743748, 9.773131
137214, -0.05746084, -0.4357447, 9.792285
137221, -0.08140286, -0.41180268, 9.734824
137231, -0.095768064, -0.4261679, 9.763555
137247, -0.05267244, -0.3878607, 9.797073
137251, 0.047884032, -0.30166942, 9.873688
137264, 0.61291564, -0.12928689, 9.572019
137271, 0.38307226, 0.12449849, 9.548077
137282, -0.20111294, -0.4165911, 9.825804
137297, -0.38307226, -0.6895301, 9.792285
137301, -0.05746084, -0.35434186, 9.816227
137312, 0.25378537, -0.1388637, 9.706094
137321, 0.18195933, -0.25378537, 9.706094
137331, -0.1388637, -0.39264908, 9.816227
137347, -0.10534488, -0.48362875, 9.801862
137351, 0.08619126, -0.29688102, 9.77792
137363, 0.12928689, -0.272939, 9.691729
137371, -0.02873042, -0.29209262, 9.734824
137382, -0.023942016, -0.4213795, 9.787497
137396, 0.009576807, -0.35434186, 9.773131
137401, 0.009576807, -0.35434186, 9.753978
137413, 0.038307227, -0.31603462, 9.763555
137421, 0.047884032, -0.32561144, 9.763555
137431, -0.02873042, -0.3878607, 9.739613
137447, -0.009576807, -0.37828386, 9.763555
137451, 0.04309563, -0.35434186, 9.734824
137463, 0.023942016, -0.320823, 9.782708
137471, -0.009576807, -0.34476504, 9.782708
137482, 0.009576807, -0.37349546, 9.753978
137496, -0.0047884034, -0.34955344, 9.758766
137502, 0.019153614, -0.34955344, 9.768343
137513, -0.0047884034, -0.35913026, 9.782708
137521, 0.009576807, -0.34476504, 9.763555
137531, 0.02873042, -0.33997664, 9.749189
137545, 0.0047884034, -0.2825158, 9.744401
137551, 0.04309563, -0.30645782, 9.749189
137562, 0.023942016, -0.33039984, 9.753978
137571, 0.023942016, -0.36391866, 9.787497
137582, -0.0047884034, -0.33518824, 9.787497
137595, 0.019153614, -0.35913026, 9.763555
137601, 0.01436521, -0.34476504, 9.792285
137612, -0.0047884034, -0.32561144, 9.758766
137621, -0.02873042, -0.35434186, 9.773131
137631, -0.023942016, -0.37349546, 9.811439
137646, 0.019153614, -0.33997664, 9.77792
137651, 0.01436521, -0.33039984, 9.77792
137663, 0.033518825, -0.33997664, 9.734824
137671, 0.01436521, -0.33518824, 9.758766
137682, 0.0047884034, -0.34955344, 9.787497
137696, 0.01436521, -0.33518824, 9.768343
137702, 0.01436521, -0.33518824, 9.768343
137712, -0.009576807, -0.35434186, 9.744401
137721, 0.01436521, -0.37349546, 9.792285
137731, 0.023942016, -0.38307226, 9.749189
137746, 0.02873042, -0.320823, 9.773131
137751, 0.019153614, -0.33039984, 9.758766
137763, 0.0047884034, -0.31124622, 9.77792
137771, 0.038307227, -0.35434186, 9.768343
137782, 0.01436521, -0.33518824, 9.773131
137795, 0.0047884034, -0.36391866, 9.787497
137801, -0.009576807, -0.35434186, 9.744401
137812, 0.05267244, -0.34476504, 9.749189
137822, 0.02873042, -0.34955344, 9.753978
137831, 0.02873042, -0.35434186, 9.758766
137846, 0.0047884034, -0.33518824, 9.749189
137851, 0.009576807, -0.34955344, 9.782708
137862, 0.01436521, -0.33518824, 9.758766
137871, -0.009576807, -0.34476504, 9.744401
137882, 0.01436521, -0.35434186, 9.749189
137895, 0.019153614, -0.35434186, 9.739613
137901, 0.019153614, -0.35434186, 9.715671
137912, 0.02873042, -0.31124622, 9.753978
137921, 0.02873042, -0.36870706, 9.763555
137931, -0.023942016, -0.33997664, 9.768343
137946, 0.05267244, -0.35434186, 9.773131
137951, 0.02873042, -0.32561144, 9.77792
137962, -0.0047884034, -0.34476504, 9.773131
137971, 0.01436521, -0.33518824, 9.749189
137981, 0.04309563, -0.33997664, 9.782708
137993, 0.009576807, -0.35913026, 9.782708
138001, -0.0047884034, -0.38307226, 9.744401
138011, 0.01436521, -0.37349546, 9.792285
138020, 0.023942016, -0.37349546, 9.749189
138031, -0.009576807, -0.31603462, 9.782708
138043, 0.019153614, -0.35434186, 9.782708
138051, 0.019153614, -0.40701428, 9.758766
138061, 0.019153614, -0.3878607, 9.763555
138071, 0.02873042, -0.35434186, 9.768343
138082, 0.0047884034, -0.31603462, 9.782708
138095, 0.019153614, -0.36870706, 9.739613
138101, 0.023942016, -0.34476504, 9.744401
138112, 0.0047884034, -0.36391866, 9.768343
138122, -0.009576807, -0.34955344, 9.797073
138131, 0.038307227, -0.33997664, 9.753978
138145, 0.009576807, -0.35434186, 9.758766
138151, 0.05267244, -0.38307226, 9.768343
138162, -0.0047884034, -0.33997664, 9.773131
138171, 0.01436521, -0.35434186, 9.763555
138182, 0.02873042, -0.35913026, 9.773131
138195, 0.05267244, -0.34476504, 9.792285
138201, 0.033518825, -0.35434186, 9.758766
138212, 0.038307227, -0.33039984, 9.768343
138222, -0.0047884034, -0.34476504, 9.787497
138232, 0.019153614, -0.37828386, 9.77792
138245, 0.0047884034, -0.33039984, 9.758766
138251, 0.033518825, -0.32561144, 9.787497
138262, 0.0047884034, -0.35913026, 9.792285
138271, 0.0047884034, -0.39264908, 9.739613
138282, 0.01436521, -0.33518824, 9.749189
138295, 0.02873042, -0.35913026, 9.744401
138301, 0.023942016, -0.36391866, 9.758766
138311, 0.05746084, -0.320823, 9.749189
138321, -0.009576807, -0.34476504, 9.77792
138331, 0.02873042, -0.35913026, 9.758766
138344, 0.019153614, -0.34476504, 9.77792
138351, 0.033518825, -0.31124622, 9.758766
138363, 0.033518825, -0.33039984, 9.758766
138371, 0.033518825, -0.33039984, 9.77792
138382, 0.0047884034, -0.40222588, 9.797073
138394, -0.01436521, -0.35434186, 9.734824
138401, 0.033518825, -0.35434186, 9.77792
138411, 0.023942016, -0.33518824, 9.77792
138421, 0.033518825, -0.31603462, 9.758766
138431, 0.019153614, -0.33039984, 9.763555
138444, 0.019153614, -0.36391866, 9.801862
138451, 0.009576807, -0.33997664, 9.739613
138464, 0.05746084, -0.33039984, 9.80665
138471, 0.038307227, -0.37828386, 9.753978
138484, 0.01436521, -0.36870706, 9.782708
138494, -0.0047884034, -0.35913026, 9.782708
138501, 0.019153614, -0.35434186, 9.749189
138511, 0.023942016, -0.35913026, 9.758766
138520, 0.02873042, -0.33997664, 9.763555
138531, 0.0047884034, -0.35434186, 9.773131
138541, 0.0047884034, -0.34955344, 9.720459
138550, 0.019153614, -0.35913026, 9.715671
138561, 0.0047884034, -0.34476504, 9.768343
138571, 0.009576807, -0.36391866, 9.749189
138581, 0.0047884034, -0.36391866, 9.77792
138592, 0.009576807, -0.36870706, 9.792285
138601, -0.01436521, -0.33039984, 9.773131
138611, 0.05267244, -0.35913026, 9.758766
138621, 0.02873042, -0.320823, 9.763555
138631, 0.0047884034, -0.33518824, 9.749189
138643, 0.0047884034, -0.35434186, 9.773131
138651, 0.023942016, -0.40222588, 9.744401
138662, -0.0047884034, -0.34476504, 9.749189
138671, -0.009576807, -0.32561144, 9.758766
138682, 0.009576807, -0.33518824, 9.739613
138695, 0.009576807, -0.3878607, 9.720459
138701, 0.009576807, -0.33518824, 9.758766
138711, 0.038307227, -0.36391866, 9.758766
138728, -0.009576807, -0.30166942, 9.758766
138731, 0.009576807, -0.34476504, 9.744401
138744, 0.009576807, -0.32561144, 9.734824
138751, 0.04309563, -0.35913026, 9.773131
138762, 0.0047884034, -0.35434186, 9.782708
138776, 0.019153614, -0.34955344, 9.739613
138782, 0.019153614, -0.34955344, 9.773131
138793, 0.023942016, -0.36391866, 9.768343
138802, 0.038307227, -0.34476504, 9.744401
138812, 0.038307227, -0.33518824, 9.797073
138827, 0.01436521, -0.34955344, 9.744401
138831, 0.019153614, -0.33518824, 9.768343
138844, 0.05267244, -0.34476504, 9.768343
138851, 0.05267244, -0.33518824, 9.773131
138862, 0.01436521, -0.35913026, 9.768343
138877, 0.01436521, -0.33518824, 9.744401
138881, 0.04309563, -0.30166942, 9.768343
138893, 0.009576807, -0.32561144, 9.763555
138901, 0.0047884034, -0.34955344, 9.730036
138911, 0.009576807, -0.38307226, 9.773131
138921, 0.019153614, -0.33997664, 9.768343
138932, 0.019153614, -0.32561144, 9.792285
138943, 0.019153614, -0.37349546, 9.773131
138951, 0.023942016, -0.35913026, 9.749189
138962, 0.05267244, -0.32561144, 9.749189
138977, 0.033518825, -0.34955344, 9.773131
138982, 0.033518825, -0.36391866, 9.782708
138993, 0.009576807, -0.35913026, 9.792285
139001, 0.019153614, -0.30645782, 9.782708
139011, 0.02873042, -0.32561144, 9.758766
139027, 0.019153614, -0.33518824, 9.753978
139031, 0.023942016, -0.32561144, 9.763555
139044, -0.019153614, -0.33518824, 9.787497
139051, -0.019153614, -0.33039984, 9.763555
139061, 0.02873042, -0.31603462, 9.787497
139075, 0.009576807, -0.36391866, 9.77792
139081, 0.009576807, -0.35434186, 9.792285
139092, 0.047884032, -0.320823, 9.744401
139101, 0.01436521, -0.33039984, 9.763555
139112, 0.009576807, -0.36391866, 9.77792
139125, 0.009576807, -0.35434186, 9.744401
139131, 0.009576807, -0.33997664, 9.758766
139142, 0.009576807, -0.31124622, 9.749189
139151, 0.009576807, -0.37349546, 9.787497
139162, -0.023942016, -0.37828386, 9.773131
139175, 0.009576807, -0.37349546, 9.753978
139182, -0.02873042, -0.33997664, 9.758766
139194, -0.019153614, -0.36870706, 9.787497
139202, -0.023942016, -0.39743748, 9.797073
139212, -0.033518825, -0.33997664, 9.763555
139228, 0.009576807, -0.31603462, 9.696517
139235, -0.009576807, -0.33039984, 9.892841
139240, 0.019153614, -0.34955344, 9.653421
139250, 0.023942016, -0.35913026, 9.830592
139261, 0.009576807, -0.35434186, 9.753978
139275, -0.009576807, -0.320823, 9.797073
139280, 0.05267244, -0.34476504, 9.696517
139296, 0.01436521, -0.33039984, 9.859323
139300, -0.0047884034, -0.37349546, 9.768343
139311, -0.009576807, -0.34955344, 9.758766
139325, 0.023942016, -0.35434186, 9.715671
139330, 0.019153614, -0.33997664, 9.753978
139342, 0.062249243, -0.34476504, 9.773131
139350, 0.019153614, -0.36391866, 9.782708
139361, 0.02873042, -0.33518824, 9.77792
139375, 0.009576807, -0.320823, 9.753978
139380, 0.019153614, -0.33039984, 9.763555
139392, -0.01436521, -0.35913026, 9.758766
139400, 0.023942016, -0.33039984, 9.730036
139410, 0.02873042, -0.320823, 9.768343
139425, 0.009576807, -0.34955344, 9.768343
139430, 0.009576807, -0.33997664, 9.763555
139441, 0.023942016, -0.37349546, 9.801862
139450, 0.033518825, -0.33997664, 9.753978
139460, 0.023942016, -0.36391866, 9.773131
139475, 0.0047884034, -0.3878607, 9.763555
139480, 0.02873042, -0.36870706, 9.80665
139492, 0.019153614, -0.36870706, 9.739613
139500, 0.009576807, -0.36391866, 9.753978
139510, 0.038307227, -0.35913026, 9.773131
139521, 0.038307227, -0.33039984, 9.730036
139530, 0.05746084, -0.37349546, 9.787497
139542, 0.02873042, -0.35434186, 9.768343
139550, 0.0047884034, -0.37349546, 9.739613
139560, 0.01436521, -0.33997664, 9.744401
139575, 0.038307227, -0.35434186, 9.773131
139580, 0.019153614, -0.31603462, 9.782708
139592, 0.033518825, -0.32561144, 9.763555
139600, 0.01436521, -0.33997664, 9.768343
139610, 0.023942016, -0.33518824, 9.758766
139624, 0.047884032, -0.37349546, 9.758766
139630, -0.009576807, -0.33039984, 9.739613
139641, 0.0047884034, -0.34476504, 9.80665
139650, 0.023942016, -0.34955344, 9.749189
139660, 0.038307227, -0.33518824, 9.768343
139674, 0.01436521, -0.35434186, 9.782708
139680, 0.033518825, -0.33039984, 9.782708
139692, -0.009576807, -0.36391866, 9.797073
139700, 0.023942016, -0.33997664, 9.753978
139710, 0.02873042, -0.33518824, 9.782708
139725, 0.02873042, -0.33039984, 9.763555
139730, 0.038307227, -0.32561144, 9.763555
139741, 0.0047884034, -0.35913026, 9.792285
139750, -0.009576807, -0.34476504, 9.758766
139760, 0.0047884034, -0.35913026, 9.792285
139775, 0.0047884034, -0.35913026, 9.763555
139780, 0.01436521, -0.37828386, 9.734824
139790, 0.019153614, -0.34955344, 9.773131
139800, 0.019153614, -0.31124622, 9.753978
139810, 0.01436521, -0.36391866, 9.753978
139825, 0.02873042, -0.35913026, 9.763555
139830, 0.019153614, -0.34955344, 9.758766
139841, 0.02873042, -0.34476504, 9.749189
139850, 0.0047884034, -0.35434186, 9.758766
139861, -0.01436521, -0.34476504, 9.744401
139874, 0.04309563, -0.34476504, 9.725247
139880, -0.009576807, -0.35913026, 9.787497
139891, 0.038307227, -0.35434186, 9.753978
139900, 0.01436521, -0.320823, 9.739613
139910, 0.01436521, -0.35913026, 9.749189
139925, -0.0047884034, -0.37349546, 9.782708
139930, 0.009576807, -0.35434186, 9.739613
139942, 0.02873042, -0.33039984, 9.782708
139950, 0.038307227, -0.33997664, 9.792285
139960, -0.01436521, -0.35913026, 9.744401
139974, 0.0047884034, -0.36870706, 9.710882
139983, 0.0047884034, -0.34955344, 9.787497
139990, 0.02873042, -0.38307226, 9.80665
140000, 0.033518825, -0.33039984, 9.782708
140010, 0.019153614, -0.33997664, 9.758766
140023, -0.0047884034, -0.35434186, 9.763555
140030, 0.009576807, -0.36391866, 9.787497
140041, 0.038307227, -0.36391866, 9.758766
140050, 0.05267244, -0.35434186, 9.792285
140060, 0.02873042, -0.35913026, 9.763555
140073, 0.009576807, -0.33997664, 9.753978
140080, 0.023942016, -0.35913026, 9.753978
140090, -0.033518825, -0.37828386, 9.792285
140100, -0.04309563, -0.40222588, 9.763555
140110, -0.0047884034, -0.38307226, 9.792285
140124, 0.033518825, -0.34476504, 9.792285
140130, -0.009576807, -0.32561144, 9.811439
140141, 0.038307227, -0.36391866, 9.758766
140150, 0.02873042, -0.37828386, 9.768343
140160, 0.07182605, -0.38307226, 9.768343
140174, 0.062249243, -0.35434186, 9.77792
140180, 0.05746084, -0.34476504, 9.787497
140190, 0.047884032, -0.34476504, 9.768343
140200, 0.090979666, -0.34476504, 9.744401
140210, 0.023942016, -0.33039984, 9.792285
140223, 0.05267244, -0.36391866, 9.753978
140230, 0.033518825, -0.38307226, 9.782708
140240, 0.033518825, -0.36391866, 9.773131
140250, 0.009576807, -0.33039984, 9.725247
140260, 0.0047884034, -0.35913026, 9.768343
140273, 0.009576807, -0.34955344, 9.768343
140280, 0.033518825, -0.36870706, 9.749189
140290, 0.023942016, -0.320823, 9.77792
140300, 0.02873042, -0.33518824, 9.782708
140310, 0.02873042, -0.35434186, 9.773131
140323, 0.02873042, -0.36870706, 9.739613
140330, 0.02873042, -0.35434186, 9.749189
140340, 0.0047884034, -0.34955344, 9.77792
140350, 0.019153614, -0.37349546, 9.739613
140360, 0.019153614, -0.33997664, 9.773131
140374, 0.090979666, -0.34476504, 9.782708
140380, 0.05746084, -0.35434186, 9.734824
140391, 0.038307227, -0.33997664, 9.744401
140400, 0.009576807, -0.33039984, 9.758766
140410, 0.009576807, -0.37828386, 9.734824
140422, -0.05267244, -0.37349546, 9.739613
140430, 0.0047884034, -0.38307226, 9.744401
140440, 0.038307227, -0.36870706, 9.782708
140450, 0.07182605, -0.37828386, 9.801862
140460, 0.12449849, -0.33518824, 9.768343
140472, 0.08619126, -0.31603462, 9.80665
140480, 0.01436521, -0.37828386, 9.730036
140490, 0.01436521, -0.4213795, 9.753978
140500, 0.272939, -0.20590134, 9.816227
140510, 0.06703765, -0.34476504, 9.734824
140523, 0.05267244, -0.35434186, 9.725247
140530, 0.01436521, -0.36391866, 9.792285
140543, 0.038307227, -0.33997664, 9.763555
140550, 0.05746084, -0.33518824, 9.787497
140560, 0.11971009, -0.320823, 9.753978
140573, 0.05746084, -0.320823, 9.753978
140580, 0.06703765, -0.36391866, 9.734824
140590, 0.047884032, -0.35913026, 9.787497
140600, 0.090979666, -0.36391866, 9.773131
140610, 0.06703765, -0.30166942, 9.768343
140622, 0.095768064, -0.36391866, 9.753978
140630, 0.047884032, -0.33039984, 9.744401
140640, 0.07182605, -0.34955344, 9.782708
140650, 0.033518825, -0.32561144, 9.730036
140660, 0.05746084, -0.34955344, 9.753978
140673, 0.047884032, -0.36391866, 9.77792
140680, 0.07182605, -0.34476504, 9.739613
140690, 0.08140286, -0.33518824, 9.739613
140700, 0.08619126, -0.33039984, 9.768343
140710, 0.11492168, -0.31603462, 9.77792
140723, 0.062249243, -0.31124622, 9.758766
140730, 0.10055647, -0.36391866, 9.749189
140740, 0.06703765, -0.33518824, 9.763555
140750, 0.10055647, -0.31124622, 9.763555
140760, 0.06703765, -0.35434186, 9.758766
140772, 0.095768064, -0.37828386, 9.753978
140780, 0.05267244, -0.34476504, 9.773131
140790, 0.076614454, -0.36870706, 9.801862
140800, 0.047884032, -0.320823, 9.763555
140810, 0.08140286, -0.35434186, 9.787497
140822, 0.05267244, -0.34476504, 9.773131
140830, 0.095768064, -0.34955344, 9.758766
140840, 0.090979666, -0.35913026, 9.782708
140850, 0.08619126, -0.34476504, 9.734824
140860, 0.062249243, -0.34476504, 9.749189
140874, 0.05746084, -0.37828386, 9.773131
140880, 0.05267244, -0.35434186, 9.773131
140890, 0.095768064, -0.34476504, 9.749189
140900, 0.04309563, -0.36391866, 9.734824
140910, 0.08619126, -0.36870706, 9.758766
140922, 0.062249243, -0.31603462, 9.763555
140930, 0.05267244, -0.35434186, 9.782708
140941, 0.06703765, -0.34476504, 9.763555
140950, 0.07182605, -0.3878607, 9.768343
140960, 0.05267244, -0.33039984, 9.77792
140972, 0.07182605, -0.34476504, 9.734824
140980, 0.038307227, -0.36391866, 9.739613
140990, 0.062249243, -0.35913026, 9.768343
141000, 0.06703765, -0.31603462, 9.768343
141010, 0.047884032, -0.35913026, 9.763555
141022, 0.06703765, -0.36391866, 9.744401
141030, 0.047884032, -0.32561144, 9.758766
141041, 0.08619126, -0.31124622, 9.763555
141055, 0.047884032, -0.35434186, 9.787497
141060, 0.10534488, -0.35913026, 9.758766
141072, 0.033518825, -0.320823, 9.758766
141080, 0.10055647, -0.34476504, 9.739613
141090, 0.04309563, -0.320823, 9.768343
141100, 0.08619126, -0.34955344, 9.749189
141113, 0.04309563, -0.33039984, 9.792285
141120, 0.07182605, -0.320823, 9.763555
141130, 0.076614454, -0.32561144, 9.753978
141140, 0.08140286, -0.35913026, 9.753978
141150, 0.047884032, -0.320823, 9.768343
141160, 0.05746084, -0.32561144, 9.768343
141172, 0.04309563, -0.36870706, 9.725247
141180, 0.033518825, -0.34955344, 9.739613
141190, 0.07182605, -0.33997664, 9.739613
141200, 0.05746084, -0.29688102, 9.797073
141210, 0.08140286, -0.33518824, 9.768343
141221, 0.05267244, -0.34955344, 9.77792
141230, 0.04309563, -0.34955344, 9.739613
141240, 0.038307227, -0.32561144, 9.773131
141250, 0.062249243, -0.35913026, 9.758766
141260, 0.04309563, -0.35434186, 9.787497
141271, 0.07182605, -0.32561144, 9.773131
141280, 0.07182605, -0.33518824, 9.763555
141290, 0.038307227, -0.34476504, 9.80665
141300, 0.033518825, -0.33997664, 9.730036
141310, 0.05746084, -0.36870706, 9.80665
141322, 0.047884032, -0.33997664, 9.782708
141330, 0.05746084, -0.320823, 9.763555
141340, 0.05267244, -0.35434186, 9.773131
141350, 0.04309563, -0.33039984, 9.739613
141360, 0.04309563, -0.34476504, 9.749189
141371, 0.062249243, -0.33997664, 9.773131
141380, 0.07182605, -0.35434186, 9.768343
141390, 0.05746084, -0.33997664, 9.77792
141406, 0.07182605, -0.36391866, 9.749189
141410, 0.04309563, -0.32561144, 9.753978
141421, 0.08140286, -0.31603462, 9.77792
141430, 0.047884032, -0.32561144, 9.773131
141440, 0.06703765, -0.36391866, 9.749189
141454, 0.038307227, -0.34476504, 9.773131
141460, 0.095768064, -0.32561144, 9.787497
141471, 0.047884032, -0.33039984, 9.787497
141480, 0.08619126, -0.33997664, 9.758766
141491, 0.047884032, -0.33039984, 9.763555
141506, 0.047884032, -0.34955344, 9.768343
141510, 0.07182605, -0.31603462, 9.773131
141521, 0.07182605, -0.31603462, 9.763555
141530, 0.047884032, -0.35434186, 9.725247
141540, 0.047884032, -0.32561144, 9.787497
141554, 0.033518825, -0.33518824, 9.768343
141560, 0.05267244, -0.33518824, 9.763555
141570, 0.05267244, -0.320823, 9.763555
141580, 0.04309563, -0.34476504, 9.758766
141590, 0.047884032, -0.320823, 9.763555
141604, 0.05746084, -0.36391866, 9.773131
141610, 0.05267244, -0.33997664, 9.768343
141621, 0.04309563, -0.33039984, 9.787497
141630, 0.062249243, -0.31124622, 9.758766
141640, 0.05746084, -0.34955344, 9.758766
141654, 0.04309563, -0.33997664, 9.753978
141660, 0.062249243, -0.34955344, 9.749189
141670, 0.062249243, -0.33039984, 9.758766
141680, 0.07182605, -0.34955344, 9.797073
141690, 0.06703765, -0.33997664, 9.797073
141704, 0.05746084, -0.33997664, 9.758766
141710, 0.05746084, -0.33518824, 9.77792
141722, 0.04309563, -0.31603462, 9.763555
141730, 0.062249243, -0.35434186, 9.773131
141740, 0.047884032, -0.33997664, 9.77792
141753, 0.06703765, -0.32561144, 9.768343
141760, 0.05267244, -0.33039984, 9.758766
141771, 0.047884032, -0.36870706, 9.758766
141780, 0.02873042, -0.31603462, 9.77792
141790, 0.07182605, -0.33039984, 9.825804
141803, 0.05267244, -0.33518824, 9.773131
141810, 0.08619126, -0.34955344, 9.749189
141820, 0.07182605, -0.35434186, 9.763555
141830, 0.04309563, -0.32561144, 9.758766
141840, 0.07182605, -0.33518824, 9.758766
141853, 0.038307227, -0.34955344, 9.773131
141860, 0.08619126, -0.34476504, 9.734824
141870, 0.05746084, -0.33039984, 9.77792
141881, 0.05267244, -0.34476504, 9.763555
141890, 0.02873042, -0.320823, 9.797073
141901, 0.05746084, -0.34476504, 9.758766
141910, 0.07182605, -0.33518824, 9.77792
141920, 0.095768064, -0.36391866, 9.787497
141930, 0.023942016, -0.34476504, 9.749189
141940, 0.033518825, -0.31603462, 9.77792
141951, 0.01436521, -0.33039984, 9.77792
141960, 0.062249243, -0.33997664, 9.734824
141970, 0.076614454, -0.36870706, 9.773131
141980, 0.01436521, -0.33518824, 9.753978
141990, 0.047884032, -0.33518824, 9.763555
142005, 0.04309563, -0.36391866, 9.773131
142010, 0.05746084, -0.31124622, 9.77792
142020, 0.06703765, -0.320823, 9.758766
142030, 0.047884032, -0.34476504, 9.797073
142040, 0.038307227, -0.33518824, 9.753978
142051, 0.05746084, -0.34476504, 9.744401
142060, 0.038307227, -0.33518824, 9.739613
142070, 0.033518825, -0.33039984, 9.77792
142080, 0.062249243, -0.34955344, 9.782708
142090, 0.062249243, -0.33997664, 9.763555
142104, 0.047884032, -0.33518824, 9.782708
142110, 0.062249243, -0.36391866, 9.768343
142123, 0.019153614, -0.35913026, 9.758766
142131, 0.04309563, -0.34476504, 9.720459
142140, 0.01436521, -0.35434186, 9.787497
142151, 0.06703765, -0.34476504, 9.773131
142160, 0.033518825, -0.32561144, 9.77792
142170, 0.05267244, -0.34955344, 9.792285
142180, 0.02873042, -0.32561144, 9.744401
142190, 0.023942016, -0.33518824, 9.773131
142203, 0.06703765, -0.35434186, 9.77792
142210, 0.019153614, -0.33039984, 9.782708
142221, 0.038307227, -0.33997664, 9.730036
142230, 0.05267244, -0.34955344, 9.768343
142240, 0.05267244, -0.36870706, 9.782708
142253, 0.047884032, -0.33518824, 9.758766
142260, 0.04309563, -0.36870706, 9.753978
142270, 0.038307227, -0.33039984, 9.811439
142280, 0.05746084, -0.35434186, 9.773131
142290, 0.038307227, -0.34476504, 9.792285
142303, 0.04309563, -0.35434186, 9.763555
142310, 0.019153614, -0.33039984, 9.753978
142320, 0.033518825, -0.33997664, 9.763555
142330, 0.05746084, -0.33039984, 9.763555
142340, 0.05746084, -0.35434186, 9.715671
142354, 0.023942016, -0.36391866, 9.768343
142360, 0.05267244, -0.38307226, 9.753978
142371, 0.019153614, -0.34476504, 9.753978
142380, 0.033518825, -0.36391866, 9.763555
142390, 0.04309563, -0.34955344, 9.782708
142404, 0.038307227, -0.33997664, 9.758766
142410, 0.019153614, -0.34955344, 9.816227
142421, 0.038307227, -0.33518824, 9.749189
142430, 0.033518825, -0.34955344, 9.753978
142440, 0.02873042, -0.35434186, 9.768343
142454, 0.033518825, -0.320823, 9.763555
142460, 0.047884032, -0.34476504, 9.739613
142470, 0.0047884034, -0.35913026, 9.768343
142480, 0.023942016, -0.320823, 9.710882
142490, 0.02873042, -0.36391866, 9.773131
142506, 0.01436521, -0.36870706, 9.77792
142510, 0.01436521, -0.33997664, 9.77792
142520, 0.033518825, -0.33039984, 9.77792
142530, 0.038307227, -0.34476504, 9.720459
142540, 0.009576807, -0.33997664, 9.758766
142550, 0.033518825, -0.35434186, 9.768343
142560, 0.038307227, -0.36870706, 9.763555
142571, 0.02873042, -0.33997664, 9.787497
142580, 0.0047884034, -0.33518824, 9.768343
142591, 0.02873042, -0.34476504, 9.758766
142601, 0.02873042, -0.36391866, 9.77792
142610, 0.05746084, -0.36870706, 9.749189
142621, 0.05746084, -0.36870706, 9.749189
142630, 0.04309563, -0.36391866, 9.753978
142641, 0.038307227, -0.32561144, 9.768343
142651, 0.009576807, -0.36870706, 9.763555
142661, 0.038307227, -0.33039984, 9.763555
142671, 0.009576807, -0.35434186, 9.753978
142681, 0.047884032, -0.33997664, 9.763555
142691, 0.019153614, -0.33997664, 9.792285
142701, 0.01436521, -0.34955344, 9.758766
142710, 0.023942016, -0.37349546, 9.763555
142721, 0.023942016, -0.35913026, 9.739613
142730, 0.019153614, -0.320823, 9.753978
142741, 0.01436521, -0.30166942, 9.753978
142751, 0.033518825, -0.33039984, 9.768343
142761, 0.05746084, -0.34476504, 9.787497
142771, 0.038307227, -0.31603462, 9.758766
142781, 0.023942016, -0.33518824, 9.787497
142791, 0.019153614, -0.35913026, 9.744401
142800, 0.01436521, -0.33997664, 9.753978
142810, 0.019153614, -0.33039984, 9.744401
142821, 0.04309563, -0.33039984, 9.773131
142830, 0.033518825, -0.33518824, 9.801862
142841, 0.023942016, -0.36870706, 9.744401
142851, 0.023942016, -0.39743748, 9.758766
142860, 0.01436521, -0.34476504, 9.816227
142871, 0.038307227, -0.38307226, 9.782708
142880, 0.023942016, -0.35913026, 9.749189
142891, 0.038307227, -0.37349546, 9.773131
142901, 0.023942016, -0.35434186, 9.773131
142910, 0.04309563, -0.34476504, 9.763555
142921, 0.01436521, -0.36391866, 9.773131
142931, 0.038307227, -0.35434186, 9.768343
142941, 0.04309563, -0.320823, 9.753978
142951, 0.05267244, -0.37828386, 9.753978
142960, 0.02873042, -0.35434186, 9.77792
142971, 0.05267244, -0.37349546, 9.773131
142980, 0.023942016, -0.35434186, 9.782708
142990, 0.04309563, -0.3878607, 9.763555
143000, 0.02873042, -0.35913026, 9.787497
143010, 0.009576807, -0.34476504, 9.758766
143021, 0.023942016, -0.34955344, 9.768343
143030, 0.023942016, -0.33039984, 9.753978
143041, 0.019153614, -0.35434186, 9.730036
143051, 0.0047884034, -0.33518824, 9.77792
143061, 0.033518825, -0.35434186, 9.768343
143071, 0.009576807, -0.34476504, 9.758766
143081, 0.019153614, -0.36870706, 9.763555
143091, 0.033518825, -0.35434186, 9.734824
143101, 0.05746084, -0.34955344, 9.77792
143110, 0.038307227, -0.31603462, 9.753978
143121, 0.033518825, -0.35913026, 9.744401
143131, 0.033518825, -0.31603462, 9.768343
143141, 0.05267244, -0.33997664, 9.768343
143154, 0.038307227, -0.32561144, 9.792285
143161, 0.038307227, -0.34476504, 9.749189
143172, 0.019153614, -0.34476504, 9.77792
143181, 0.019153614, -0.34476504, 9.792285
143192, 0.02873042, -0.33997664, 9.773131
143205, 0.033518825, -0.38307226, 9.758766
143211, 0.05267244, -0.37349546, 9.768343
143222, 0.04309563, -0.34955344, 9.773131
143238, 0.009576807, -0.32561144, 9.744401
143241, 0.062249243, -0.38307226, 9.77792
143256, 0.04309563, -0.3878607, 9.753978
143261, 0.02873042, -0.34955344, 9.792285
143272, 0.01436521, -0.29688102, 9.758766
143288, 0.062249243, -0.34955344, 9.773131
143291, 0.033518825, -0.34955344, 9.753978
143306, 0.038307227, -0.32561144, 9.792285
143311, 0.038307227, -0.35434186, 9.792285
143322, 0.038307227, -0.34476504, 9.77792
143338, 0.08140286, -0.320823, 9.720459
143341, 0.023942016, -0.31124622, 9.77792
143354, 0.038307227, -0.34955344, 9.753978
143362, 0.0047884034, -0.33997664, 9.782708
143372, 0.019153614, -0.37828386, 9.758766
143388, 0.01436521, -0.37349546, 9.739613
143392, 0.07182605, -0.34476504, 9.710882
143405, 0.038307227, -0.29209262, 9.792285
143411, 0.023942016, -0.29209262, 9.763555
143422, 0.047884032, -0.4357447, 9.768343
143438, 0.04309563, -0.40222588, 9.782708
143442, 0.009576807, -0.320823, 9.816227
143455, 0.033518825, -0.33518824, 9.782708
143462, 0.04309563, -0.36391866, 9.749189
143472, 0.02873042, -0.320823, 9.797073
143482, 0.062249243, -0.36391866, 9.782708
143492, -0.023942016, -0.31603462, 9.77792
143503, 0.06703765, -0.33997664, 9.749189
143511, 0.02873042, -0.2633622, 9.715671
143522, -0.12449849, -0.30166942, 9.80665
143538, -0.009576807, -0.47884035, 9.792285
143541, 0.095768064, -0.34955344, 9.782708
143555, 0.10055647, -0.25378537, 9.720459
143562, 0.038307227, -0.34955344, 9.768343
143572, -0.01436521, -0.44532153, 9.811439
143586, -0.01436521, -0.37349546, 9.768343
143591, 0.08619126, -0.2825158, 9.773131
143603, 0.05746084, -0.33039984, 9.773131
143611, -0.0047884034, -0.36870706, 9.77792
143622, 0.02873042, -0.33518824, 9.797073
143638, 0.076614454, -0.33518824, 9.744401
143641, 0.07182605, -0.32561144, 9.744401
143654, 0.07182605, -0.32561144, 9.773131
143662, 0.07182605, -0.34476504, 9.787497
143672, 0.047884032, -0.33997664, 9.744401
143688, 0.038307227, -0.33997664, 9.744401
143691, 0.04309563, -0.35434186, 9.768343
143704, 0.05267244, -0.34955344, 9.801862
143711, 0.01436521, -0.33518824, 9.734824
143722, 0.033518825, -0.33997664, 9.80665
143738, 0.05746084, -0.36870706, 9.768343
143741, 0.009576807, -0.33997664, 9.792285
143754, 0.023942016, -0.33997664, 9.734824
143762, 0.047884032, -0.320823, 9.782708
143772, 0.047884032, -0.38307226, 9.744401
143788, 0.047884032, -0.32561144, 9.77792
143791, 0.04309563, -0.34955344, 9.768343
143804, 0.05746084, -0.33039984, 9.749189
143811, 0.033518825, -0.33997664, 9.730036
143822, 0.02873042, -0.36870706, 9.768343
143836, -0.02873042, -0.34955344, 9.629479
143840, -0.01436521, -0.37828386, 9.773131
143850, 0.009576807, -0.32561144, 9.773131
143861, 0.0047884034, -0.34955344, 9.730036
143870, 0.033518825, -0.33039984, 9.773131
143884, 0.019153614, -0.34955344, 9.768343
143890, 0.02873042, -0.29688102, 9.787497
143900, 0.023942016, -0.34955344, 9.730036
143910, 0.062249243, -0.34476504, 9.773131
143920, 0.04309563, -0.33518824, 9.744401
143934, 0.08140286, -0.36391866, 9.787497
143940, 0.033518825, -0.36391866, 9.792285
143950, 0.019153614, -0.34955344, 9.787497
143960, 0.04309563, -0.34955344, 9.749189
143971, 0.062249243, -0.33997664, 9.77792
143986, 0.02873042, -0.320823, 9.763555
143990, 0.04309563, -0.320823, 9.744401
144001, 0.047884032, -0.37828386, 9.763555
144010, 0.01436521, -0.320823, 9.758766
144021, 0.033518825, -0.34955344, 9.763555
144035, 0.05267244, -0.34955344, 9.753978
144040, 0.033518825, -0.33518824, 9.749189
144051, 0.05746084, -0.31603462, 9.768343
144060, 0.076614454, -0.33518824, 9.763555
144071, 0.04309563, -0.33039984, 9.758766
144084, 0.05746084, -0.33997664, 9.773131
144090, 0.06703765, -0.34476504, 9.753978
144101, 0.08619126, -0.34955344, 9.773131
144110, 0.033518825, -0.35913026, 9.753978
144120, 0.05267244, -0.34955344, 9.753978
144134, 0.062249243, -0.36870706, 9.744401
144140, 0.05746084, -0.32561144, 9.763555
144151, 0.07182605, -0.34476504, 9.763555
144160, 0.047884032, -0.34955344, 9.787497
144170, 0.033518825, -0.34476504, 9.739613
144185, 0.06703765, -0.33518824, 9.816227
144190, 0.08140286, -0.33518824, 9.734824
144201, 0.05746084, -0.33518824, 9.77792
144210, 0.05746084, -0.36870706, 9.773131
144220, 0.033518825, -0.33997664, 9.773131
144234, 0.05267244, -0.33518824, 9.77792
144240, 0.023942016, -0.34955344, 9.797073
144251, 0.047884032, -0.34955344, 9.749189
144260, 0.08140286, -0.35913026, 9.715671
144270, 0.10534488, -0.34476504, 9.763555
144284, 0.02873042, -0.31124622, 9.763555
144290, 0.05746084, -0.32561144, 9.753978
144301, 0.076614454, -0.34955344, 9.749189
144310, 0.05746084, -0.32561144, 9.77792
144321, 0.02873042, -0.35913026, 9.792285
144335, 0.04309563, -0.37349546, 9.730036
144340, 0.04309563, -0.33997664, 9.77792
144351, 0.04309563, -0.31124622, 9.753978
144360, 0.009576807, -0.320823, 9.720459
144370, 0.038307227, -0.33518824, 9.77792
144385, 0.033518825, -0.35434186, 9.696517
144390, 0.047884032, -0.33518824, 9.782708
144404, 0.05267244, -0.320823, 9.787497
144410, 0.08140286, -0.34476504, 9.787497
144420, 0.076614454, -0.31603462, 9.763555
144433, 0.110133275, -0.34955344, 9.768343
144440, 0.07182605, -0.34955344, 9.801862
144451, 0.047884032, -0.31124622, 9.797073
144460, 0.05746084, -0.33039984, 9.792285
144470, 0.08140286, -0.37828386, 9.710882
144489, 0.01436521, -0.35434186, 9.768343
144490, 0.062249243, -0.31603462, 9.763555
144502, 0.05267244, -0.34476504, 9.787497
144510, 0.023942016, -0.34476504, 9.763555
144520, 0.047884032, -0.32561144, 9.753978
144533, 0.08619126, -0.33997664, 9.782708
144540, 0.05267244, -0.33997664, 9.792285
144550, 0.06703765, -0.33039984, 9.773131
144560, 0.08619126, -0.33997664, 9.782708
144570, 0.04309563, -0.34476504, 9.763555
144585, 0.033518825, -0.34476504, 9.744401
144590, 0.04309563, -0.34955344, 9.744401
144601, 0.062249243, -0.320823, 9.773131
144610, 0.06703765, -0.33039984, 9.792285
144620, 0.07182605, -0.36391866, 9.773131
144633, 0.047884032, -0.33518824, 9.768343
144640, 0.05267244, -0.31603462, 9.787497
144650, 0.04309563, -0.35434186, 9.744401
144660, 0.04309563, -0.35434186, 9.792285
144670, 0.033518825, -0.34476504, 9.758766
144684, 0.06703765, -0.34476504, 9.77792
144690, 0.07182605, -0.320823, 9.768343
144701, 0.062249243, -0.35913026, 9.768343
144710, 0.02873042, -0.36391866, 9.768343
144720, 0.05267244, -0.31603462, 9.773131
144733, 0.05746084, -0.33518824, 9.797073
144740, 0.076614454, -0.33518824, 9.782708
144751, 0.05267244, -0.320823, 9.749189
144760, 0.02873042, -0.34955344, 9.758766
144770, 0.033518825, -0.33518824, 9.773131
144783, 0.0047884034, -0.33997664, 9.763555
144790, 0.033518825, -0.320823, 9.801862
144801, 0.05746084, -0.33518824, 9.782708
144811, 0.023942016, -0.33039984, 9.773131
144820, 0.019153614, -0.33518824, 9.734824
144833, 0.047884032, -0.36391866, 9.773131
144840, 0.05267244, -0.34476504, 9.734824
144851, 0.06703765, -0.33518824, 9.763555
144860, 0.062249243, -0.33518824, 9.768343
144870, 0.04309563, -0.32561144, 9.758766
144883, 0.04309563, -0.33039984, 9.77792
144890, 0.05267244, -0.30166942, 9.753978
144901, 0.062249243, -0.34476504, 9.773131
144910, 0.04309563, -0.30645782, 9.749189
144920, 0.04309563, -0.33997664, 9.792285
144933, 0.04309563, -0.320823, 9.753978
144940, 0.062249243, -0.33518824, 9.768343
144950, 0.062249243, -0.33997664, 9.763555
144960, 0.05746084, -0.34476504, 9.773131
144970, 0.038307227, -0.32561144, 9.768343
144983, 0.05746084, -0.320823, 9.725247
144990, 0.033518825, -0.34955344, 9.773131
145001, 0.05267244, -0.34476504, 9.782708
145010, 0.05267244, -0.33997664, 9.763555
145020, 0.05267244, -0.31603462, 9.773131
145033, 0.04309563, -0.33518824, 9.768343
145040, 0.023942016, -0.31603462, 9.77792
145050, 0.047884032, -0.33039984, 9.763555
145060, 0.08140286, -0.35913026, 9.749189
145071, 0.06703765, -0.34955344, 9.744401
145083, 0.047884032, -0.33518824, 9.744401
145090, 0.038307227, -0.33518824, 9.744401
145100, 0.05746084, -0.30645782, 9.768343
145110, 0.05746084, -0.31124622, 9.744401
145120, 0.062249243, -0.31603462, 9.720459
145133, 0.05267244, -0.35913026, 9.797073
145140, 0.05267244, -0.33997664, 9.77792
145150, 0.033518825, -0.33518824, 9.787497
145160, 0.05267244, -0.31603462, 9.77792
145170, 0.05746084, -0.31124622, 9.763555
145183, 0.033518825, -0.33518824, 9.763555
145190, 0.05746084, -0.30166942, 9.77792
145200, 0.076614454, -0.34476504, 9.77792
145210, 0.04309563, -0.34476504, 9.768343
145220, 0.038307227, -0.33518824, 9.782708
145233, 0.0047884034, -0.320823, 9.758766
145240, 0.047884032, -0.34955344, 9.773131
145250, 0.062249243, -0.33518824, 9.782708
145260, 0.05267244, -0.34955344, 9.77792
145270, 0.05746084, -0.34955344, 9.758766
145280, 0.04309563, -0.320823, 9.801862
145290, 0.038307227, -0.33039984, 9.753978
145301, 0.04309563, -0.35434186, 9.768343
145310, 0.02873042, -0.33518824, 9.763555
145320, 0.038307227, -0.33039984, 9.787497
145331, 0.05746084, -0.31603462, 9.753978
145340, 0.047884032, -0.35434186, 9.739613
145352, 0.062249243, -0.34955344, 9.720459
145361, 0.06703765, -0.36391866, 9.749189
145371, 0.0047884034, -0.31603462, 9.730036
145387, 0.05746084, -0.35434186, 9.77792
145391, 0.02873042, -0.33039984, 9.730036
145403, 0.047884032, -0.33518824, 9.80665
145410, 0.02873042, -0.31603462, 9.782708
145421, 0.04309563, -0.36391866, 9.739613
145437, 0.01436521, -0.32561144, 9.744401
145441, 0.038307227, -0.33518824, 9.801862
145454, 0.047884032, -0.35913026, 9.763555
145461, 0.038307227, -0.36391866, 9.758766
145471, 0.01436521, -0.33039984, 9.763555
145483, 0.062249243, -0.30166942, 9.753978
145490, 0.02873042, -0.320823, 9.758766
145502, 0.0047884034, -0.33997664, 9.753978
145510, 0.05267244, -0.35913026, 9.792285
145520, 0.009576807, -0.35913026, 9.773131
145532, 0.019153614, -0.34955344, 9.758766
145540, 0.05746084, -0.34955344, 9.768343
145550, 0.033518825, -0.34476504, 9.792285
145560, 0.033518825, -0.33518824, 9.758766
145570, 0.06703765, -0.35434186, 9.792285
145582, 0.033518825, -0.34476504, 9.749189
145591, 0.019153614, -0.34955344, 9.792285
145600, 0.023942016, -0.33039984, 9.739613
145610, 0.0047884034, -0.36391866, 9.758766
145620, 0.033518825, -0.37828386, 9.773131
145633, 0.038307227, -0.33039984, 9.816227
145640, 0.047884032, -0.31603462, 9.763555
145650, 0.023942016, -0.33997664, 9.801862
145660, 0.05267244, -0.33518824, 9.758766
145670, 0.04309563, -0.34955344, 9.768343
145680, 0.04309563, -0.35913026, 9.753978
145690, 0.009576807, -0.34955344, 9.787497
145700, 0.05267244, -0.34955344, 9.77792
145712, 0.05267244, -0.33997664, 9.768343
145720, 0.02873042, -0.32561144, 9.763555
145730, 0.01436521, -0.33039984, 9.730036
145740, 0.02873042, -0.34476504, 9.753978
145750, 0.047884032, -0.33518824, 9.753978
145762, 0.047884032, -0.33997664, 9.715671
145770, 0.009576807, -0.34476504, 9.773131
145782, 0.009576807, -0.33518824, 9.768343
145790, 0.0047884034, -0.35434186, 9.753978
145800, 0.023942016, -0.33518824, 9.801862
145812, 0.01436521, -0.33039984, 9.753978
145820, 0.019153614, -0.35913026, 9.725247
145830, 0.0047884034, -0.33518824, 9.720459
145840, 0.01436521, -0.33518824, 9.744401
145850, 0.033518825, -0.35434186, 9.753978
145860, 0.009576807, -0.35434186, 9.768343
145870, 0.023942016, -0.34476504, 9.730036
145880, 0.033518825, -0.33997664, 9.768343
145890, 0.009576807, -0.34955344, 9.787497
145901, 0.0047884034, -0.33997664, 9.758766
145911, 0.019153614, -0.35434186, 9.768343
145921, 0.0047884034, -0.33518824, 9.77792
145931, 0.033518825, -0.38307226, 9.792285
145941, 0.04309563, -0.36391866, 9.801862
145951, 0.0047884034, -0.320823, 9.792285
145961, 0.04309563, -0.37349546, 9.753978
145971, 0.01436521, -0.320823, 9.77792
145981, 0.033518825, -0.34476504, 9.753978
145990, 0.04309563, -0.36870706, 9.787497
146001, 0.009576807, -0.35434186, 9.753978
146013, 0.023942016, -0.33039984, 9.80665
146021, 0.02873042, -0.33518824, 9.734824
146031, 0.038307227, -0.32561144, 9.782708
146040, 0.02873042, -0.35434186, 9.749189
146051, 0.023942016, -0.34476504, 9.77792
146060, 0.033518825, -0.34476504, 9.758766
146071, 0.02873042, -0.31603462, 9.758766
146081, 0.02873042, -0.34476504, 9.744401
146090, 0.062249243, -0.35434186, 9.758766
146101, 0.019153614, -0.33518824, 9.773131
146112, 0.033518825, -0.35434186, 9.768343
146121, 0.038307227, -0.35913026, 9.77792
146131, 0.047884032, -0.33039984, 9.753978
146141, 0.047884032, -0.33039984, 9.768343
146151, 0.009576807, -0.33518824, 9.753978
146160, 0.033518825, -0.33997664, 9.768343
146171, 0.038307227, -0.34955344, 9.739613
146180, 0.038307227, -0.36391866, 9.797073
146190, 0.033518825, -0.34955344, 9.749189
146200, 0.01436521, -0.35434186, 9.797073
146212, 0.0047884034, -0.35913026, 9.758766
146220, 0.023942016, -0.33518824, 9.763555
146231, 0.02873042, -0.32561144, 9.725247
146240, 0.062249243, -0.36870706, 9.763555
146251, 0.0047884034, -0.32561144, 9.77792
146262, 0.062249243, -0.37828386, 9.768343
146270, 0.04309563, -0.34476504, 9.758766
146281, 0.009576807, -0.31124622, 9.792285
146290, 0.01436521, -0.34955344, 9.773131
146300, 0.05746084, -0.33997664, 9.773131
146312, 0.02873042, -0.33997664, 9.758766
146320, 0.023942016, -0.33039984, 9.753978
146331, 0.038307227, -0.35434186, 9.763555
146340, 0.0047884034, -0.34955344, 9.773131
146351, 0.023942016, -0.35434186, 9.758766
146362, 0.038307227, -0.33518824, 9.792285
146371, 0.0047884034, -0.35434186, 9.77792
146381, 0.05267244, -0.33997664, 9.768343
146390, 0.02873042, -0.35434186, 9.782708
146400, 0.038307227, -0.34476504, 9.782708
146412, 0.02873042, -0.32561144, 9.768343
146420, 0.009576807, -0.33518824, 9.758766
146431, -0.0047884034, -0.34476504, 9.749189
146440, 0.033518825, -0.33997664, 9.734824
146451, 0.047884032, -0.36391866, 9.758766
146462, -0.0047884034, -0.30166942, 9.749189
146470, 0.02873042, -0.33039984, 9.768343
146481, 0.07182605, -0.38307226, 9.753978
146491, 0.009576807, -0.29209262, 9.782708
146501, 0.009576807, -0.35913026, 9.77792
146515, 0.07182605, -0.33997664, 9.792285
146522, 0.023942016, -0.33039984, 9.734824
146533, 0.038307227, -0.33039984, 9.773131
146542, 0.02873042, -0.35434186, 9.744401
146552, 0.02873042, -0.32561144, 9.797073
146566, 0.062249243, -0.35913026, 9.758766
146571, 0.05267244, -0.34476504, 9.749189
146583, 0.01436521, -0.35434186, 9.768343
146592, 0.04309563, -0.33518824, 9.739613
146602, 0.033518825, -0.33997664, 9.773131
146617, 0.019153614, -0.33039984, 9.77792
146622, 0.047884032, -0.33518824, 9.758766
146633, 0.033518825, -0.33518824, 9.730036
146642, 0.05267244, -0.35434186, 9.753978
146652, 0.04309563, -0.34955344, 9.763555
146667, 0.0047884034, -0.320823, 9.773131
146671, 0.047884032, -0.34476504, 9.763555
146683, 0.04309563, -0.35913026, 9.725247
146691, 0.023942016, -0.320823, 9.734824
146702, 0.04309563, -0.34955344, 9.782708
146717, 0.05267244, -0.34955344, 9.792285
146722, 0.01436521, -0.29209262, 9.77792
146733, 0.062249243, -0.31603462, 9.753978
146742, 0.05267244, -0.33518824, 9.797073
146752, 0.009576807, -0.320823, 9.763555
146767, 0.033518825, -0.35434186, 9.792285
146771, 0.02873042, -0.36870706, 9.787497
146784, 0.0047884034, -0.35913026, 9.744401
146792, 0.019153614, -0.34476504, 9.768343
146802, 0.02873042, -0.35913026, 9.749189
146817, 0.023942016, -0.34955344, 9.77792
146821, 0.0047884034, -0.34955344, 9.763555
146839, 0.009576807, -0.36391866, 9.782708
146842, -0.009576807, -0.34476504, 9.782708
146854, 0.02873042, -0.33997664, 9.782708
146864, 0.038307227, -0.33997664, 9.739613
146871, 0.02873042, -0.33039984, 9.787497
146881, 0.019153614, -0.33039984, 9.758766
146891, 0.01436521, -0.33518824, 9.758766
146901, 0.047884032, -0.32561144, 9.758766
146913, 0.04309563, -0.34955344, 9.821015
146921, -0.0047884034, -0.36391866, 9.753978
146931, 0.01436521, -0.33518824, 9.792285
146941, 0.07182605, -0.35913026, 9.734824
146951, 0.038307227, -0.33518824, 9.773131
146963, 0.023942016, -0.33997664, 9.768343
146971, 0.033518825, -0.36870706, 9.773131
146981, 0.01436521, -0.34476504, 9.763555
146991, 0.019153614, -0.33518824, 9.792285
147002, 0.01436521, -0.320823, 9.77792
147015, 0.023942016, -0.37828386, 9.720459
147021, 0.05267244, -0.37828386, 9.768343
147032, 0.019153614, -0.33997664, 9.782708
147041, 0.0047884034, -0.33997664, 9.77792
147052, 0.033518825, -0.35913026, 9.782708
147065, 0.023942016, -0.33518824, 9.739613
147071, 0.0047884034, -0.31603462, 9.758766
147082, 0.047884032, -0.36391866, 9.787497
147091, 0.0047884034, -0.33518824, 9.782708
147102, 0.047884032, -0.33518824, 9.801862
147115, 0.05267244, -0.34476504, 9.753978
147122, 0.05267244, -0.34955344, 9.763555
147132, 0.062249243, -0.33039984, 9.77792
147142, 0.047884032, -0.33997664, 9.787497
147151, 0.019153614, -0.34476504, 9.782708
147165, 0.02873042, -0.33039984, 9.782708
147171, 0.05267244, -0.30645782, 9.768343
147183, 0.02873042, -0.33039984, 9.792285
147191, 0.019153614, -0.34955344, 9.753978
147202, 0.01436521, -0.33518824, 9.773131
147217, 0.023942016, -0.35434186, 9.720459
147222, 0.023942016, -0.34476504, 9.763555
147233, 0.009576807, -0.34476504, 9.787497
147242, 0.019153614, -0.33039984, 9.768343
147252, 0.038307227, -0.33997664, 9.758766
147266, 0.019153614, -0.34476504, 9.720459
147271, 0.10055647, -0.36870706, 9.864111
147282, 0.01436521, -0.38307226, 9.730036
147291, -0.023942016, -0.30645782, 9.816227
147302, 0.02873042, -0.33997664, 9.720459
147316, 0.08140286, -0.37828386, 9.758766
147322, 0.033518825, -0.34955344, 9.725247
147332, 0.02873042, -0.30645782, 9.758766
147342, 0.038307227, -0.40701428, 9.782708
147352, 0.023942016, -0.32561144, 9.792285
147365, 0.009576807, -0.32561144, 9.758766
147371, 0.05746084, -0.37828386, 9.773131
147382, 0.019153614, -0.34476504, 9.730036
147391, 0.047884032, -0.31603462, 9.768343
147403, 0.062249243, -0.33039984, 9.758766
147415, 0.033518825, -0.34476504, 9.753978
147422, 0.04309563, -0.33039984, 9.758766
147432, 0.047884032, -0.31124622, 9.753978
147442, 0.07182605, -0.33518824, 9.797073
147452, 0.07182605, -0.30166942, 9.753978
147465, 0.02873042, -0.35913026, 9.77792
147471, 0.01436521, -0.37828386, 9.797073
147482, -0.023942016, -0.33518824, 9.787497
147492, 0.019153614, -0.34476504, 9.758766
147502, 0.04309563, -0.33039984, 9.811439
147515, 0.033518825, -0.34476504, 9.744401
147522, 0.009576807, -0.35434186, 9.787497
147532, 0.05267244, -0.33997664, 9.753978
147542, 0.023942016, -0.33518824, 9.816227
147552, 0.04309563, -0.36391866, 9.787497
147565, 0.0047884034, -0.33039984, 9.792285
147571, 0.01436521, -0.35913026, 9.753978
147582, 0.038307227, -0.36391866, 9.797073
147592, 0.033518825, -0.33039984, 9.749189
147602, 0.033518825, -0.29209262, 9.758766
147615, 0.05746084, -0.34955344, 9.744401
147622, 0.07182605, -0.32561144, 9.782708
147632, 0.02873042, -0.37349546, 9.801862
147642, 0.01436521, -0.34955344, 9.782708
147652, 0.07182605, -0.34476504, 9.792285
147665, 0.038307227, -0.320823, 9.753978
147671, -0.01436521, -0.37349546, 9.773131
147682, -0.038307227, -0.36391866, 9.787497
147691, 0.076614454, -0.31124622, 9.787497
147702, 0.06703765, -0.32561144, 9.739613
147715, 0.023942016, -0.33039984, 9.763555
147722, 0.01436521, -0.37828386, 9.753978
147732, 0.06703765, -0.33039984, 9.749189
147742, 0.047884032, -0.29688102, 9.77792
147752, 0.05746084, -0.34955344, 9.797073
147765, -0.009576807, -0.3878607, 9.77792
147771, 0.04309563, -0.320823, 9.787497
147782, 0.05746084, -0.31603462, 9.749189
147798, 0.04309563, -0.33997664, 9.782708
147801, 0.023942016, -0.35913026, 9.77792
147815, 0.023942016, -0.32561144, 9.782708
147821, 0.05746084, -0.34476504, 9.730036
147834, 0.05746084, -0.33039984, 9.797073
147848, 0.038307227, -0.33039984, 9.758766
147851, 0.05267244, -0.35434186, 9.749189
147864, 0.047884032, -0.33997664, 9.773131
147871, 0.019153614, -0.35913026, 9.753978
147882, 0.02873042, -0.36391866, 9.768343
147897, 0.038307227, -0.34955344, 9.77792
147901, 0.033518825, -0.33518824, 9.782708
147914, 0.05267244, -0.320823, 9.739613
147922, 0.033518825, -0.35434186, 9.753978
147932, 0.023942016, -0.33039984, 9.744401
147947, 0.04309563, -0.33518824, 9.801862
147951, 0.02873042, -0.34476504, 9.753978
147965, 0.0047884034, -0.35913026, 9.753978
147971, 0.0047884034, -0.34955344, 9.773131
147982, 0.038307227, -0.32561144, 9.77792
147991, 0.04309563, -0.35913026, 9.730036
148002, 0.047884032, -0.320823, 9.763555
148015, 0.05746084, -0.33518824, 9.77792
148022, 0.023942016, -0.33039984, 9.787497
148032, 0.023942016, -0.33518824, 9.77792
148041, 0.009576807, -0.34476504, 9.758766
148052, 0.019153614, -0.320823, 9.753978
148065, 0.009576807, -0.34955344, 9.749189
148071, 0.02873042, -0.34955344, 9.734824
148082, 0.01436521, -0.36870706, 9.758766
148098, 0.01436521, -0.34955344, 9.744401
148102, 0.04309563, -0.32561144, 9.787497
148114, 0.023942016, -0.35434186, 9.744401
148122, 0.033518825, -0.33518824, 9.758766
148132, 0.033518825, -0.320823, 9.739613
148147, 0.019153614, -0.33039984, 9.763555
148151, 0.01436521, -0.35434186, 9.744401
148165, 0.04309563, -0.33997664, 9.801862
148171, 0.01436521, -0.34476504, 9.763555
148182, 0.04309563, -0.35434186, 9.763555
148199, 0.038307227, -0.34476504, 9.744401
148202, 0.009576807, -0.34476504, 9.758766
148214, 0.038307227, -0.31603462, 9.758766
148222, 0.023942016, -0.35913026, 9.773131
148232, 0.01436521, -0.36870706, 9.77792
148241, 0.033518825, -0.36870706, 9.753978
148252, 0.047884032, -0.34955344, 9.758766
148265, 0.01436521, -0.32561144, 9.773131
148271, 0.02873042, -0.33039984, 9.758766
148282, 0.023942016, -0.33518824, 9.782708
148297, -0.009576807, -0.34476504, 9.801862
148302, -0.0047884034, -0.33039984, 9.768343
148314, 0.04309563, -0.33997664, 9.725247
148322, 0.019153614, -0.35913026, 9.758766
148332, 0.01436521, -0.33997664, 9.768343
148347, 0.023942016, -0.30645782, 9.77792
148351, 0.01436521, -0.35434186, 9.773131
148364, 0.023942016, -0.34476504, 9.768343
148372, 0.033518825, -0.31603462, 9.744401
148382, 0.05267244, -0.33997664, 9.768343
148397, 0.062249243, -0.33997664, 9.763555
148402, 0.04309563, -0.35913026, 9.758766
148415, -0.01436521, -0.320823, 9.758766
148422, 0.05746084, -0.35434186, 9.749189
148432, 0.05746084, -0.35913026, 9.725247
148447, 0.009576807, -0.35434186, 9.758766
148451, 0.009576807, -0.34955344, 9.787497
148464, 0.02873042, -0.31603462, 9.763555
148471, 0.033518825, -0.31124622, 9.768343
148482, 0.033518825, -0.33518824, 9.768343
148497, 0.038307227, -0.34955344, 9.753978
148502, 0.047884032, -0.36391866, 9.773131
148514, 0.04309563, -0.35913026, 9.77792
148522, 0.047884032, -0.35434186, 9.787497
148532, 0.01436521, -0.320823, 9.758766
148547, 0.05267244, -0.34955344, 9.758766
148551, 0.033518825, -0.37828386, 9.80665
148565, 0.023942016, -0.33997664, 9.768343
148572, 0.019153614, -0.33039984, 9.768343
148582, 0.033518825, -0.33039984, 9.753978
148597, 0.06703765, -0.32561144, 9.753978
148602, 0.04309563, -0.34955344, 9.768343
148614, 0.0047884034, -0.33039984, 9.763555
148622, 0.01436521, -0.33997664, 9.768343
148632, 0.047884032, -0.320823, 9.763555
148647, 0.038307227, -0.34955344, 9.763555
148652, 0.009576807, -0.35434186, 9.773131
148665, 0.019153614, -0.35434186, 9.773131
148672, 0.019153614, -0.31603462, 9.734824
148682, 0.05267244, -0.31603462, 9.753978
148697, 0.033518825, -0.320823, 9.77792
148702, 0.01436521, -0.35434186, 9.773131
148714, -0.0047884034, -0.33518824, 9.763555
148722, 0.02873042, -0.35913026, 9.749189
148732, 0.019153614, -0.32561144, 9.782708
148747, 0.01436521, -0.34476504, 9.744401
148751, 0.038307227, -0.34955344, 9.801862
148763, 0.01436521, -0.31603462, 9.725247
148771, 0.05746084, -0.33039984, 9.730036
148782, 0.033518825, -0.36391866, 9.792285
148797, 0.019153614, -0.34955344, 9.763555
148802, 0.038307227, -0.34476504, 9.739613
148813, 0.05267244, -0.34955344, 9.77792
148822, -0.009576807, -0.33518824, 9.763555
148832, 0.02873042, -0.320823, 9.753978
148847, 0.02873042, -0.33518824, 9.782708
148852, 0.019153614, -0.320823, 9.77792
148863, 0.02873042, -0.34476504, 9.787497
148871, 0.04309563, -0.33518824, 9.739613
148882, 0.033518825, -0.29209262, 9.768343
148897, 0.033518825, -0.34476504, 9.739613
148902, 0.033518825, -0.36391866, 9.792285
148913, 0.02873042, -0.33997664, 9.744401
148922, 0.05267244, -0.33997664, 9.749189
148932, 0.033518825, -0.35434186, 9.734824
148947, 0.01436521, -0.36870706, 9.773131
148951, 0.02873042, -0.35434186, 9.739613
148963, 0.04309563, -0.32561144, 9.758766
148971, 0.0047884034, -0.35913026, 9.773131
148982, 0.02873042, -0.34476504, 9.744401
148997, 0.05746084, -0.33997664, 9.730036
149002, 0.05267244, -0.320823, 9.787497
149013, 0.0047884034, -0.35913026, 9.768343
149022, 0.05267244, -0.35913026, 9.758766
149032, 0.04309563, -0.320823, 9.758766
149047, 0.019153614, -0.35434186, 9.744401
149052, 0.019153614, -0.35434186, 9.768343
149063, 0.02873042, -0.29688102, 9.715671
149072, 0.05267244, -0.31603462, 9.744401
149082, 0.02873042, -0.33039984, 9.782708
149097, 0.04309563, -0.33039984, 9.77792
149101, 0.062249243, -0.35434186, 9.739613
149113, 0.047884032, -0.35913026, 9.773131
149122, 0.04309563, -0.31603462, 9.763555
149132, -0.019153614, -0.35913026, 9.758766
149146, 0.05267244, -0.35434186, 9.768343
149151, 0.05746084, -0.33997664, 9.763555
149163, 0.06703765, -0.36870706, 9.730036
149172, 0.04309563, -0.31124622, 9.739613
149182, 0.05746084, -0.33039984, 9.77792
149196, 0.04309563, -0.36870706, 9.768343
149202, -0.0047884034, -0.33518824, 9.787497
149213, 0.023942016, -0.34476504, 9.768343
149222, 0.01436521, -0.33518824, 9.758766
149232, 0.038307227, -0.33039984, 9.749189
149246, 0.05267244, -0.33997664, 9.758766
149252, 0.023942016, -0.35434186, 9.744401
149263, 0.038307227, -0.32561144, 9.749189
149271, 0.02873042, -0.33518824, 9.773131
149282, 0.047884032, -0.31603462, 9.792285
149297, 0.04309563, -0.33997664, 9.739613
149302, 0.02873042, -0.33997664, 9.758766
149313, 0.009576807, -0.31603462, 9.725247
149322, 0.038307227, -0.35913026, 9.744401
149332, 0.019153614, -0.33039984, 9.749189
149346, 0.04309563, -0.34955344, 9.768343
149351, 0.0047884034, -0.32561144, 9.77792
149362, 0.009576807, -0.37349546, 9.768343
149371, 0.009576807, -0.33518824, 9.734824
149382, 0.01436521, -0.34476504, 9.787497
149396, 0.009576807, -0.320823, 9.768343
149402, 0.019153614, -0.34955344, 9.753978
149413, 0.023942016, -0.33518824, 9.773131
149421, 0.023942016, -0.35913026, 9.744401
149432, 0.02873042, -0.34476504, 9.77792
149445, 0.02873042, -0.35434186, 9.753978
149451, 0.038307227, -0.34476504, 9.758766
149462, 0.038307227, -0.35434186, 9.768343
149471, 0.01436521, -0.35913026, 9.787497
149482, 0.01436521, -0.36870706, 9.739613
149496, 0.047884032, -0.32561144, 9.758766
149501, 0.047884032, -0.33039984, 9.763555
149513, 0.0047884034, -0.34476504, 9.787497
149522, 0.009576807, -0.36391866, 9.763555
149532, 0.023942016, -0.33997664, 9.773131
149546, 0.047884032, -0.33039984, 9.753978
149551, 0.009576807, -0.34955344, 9.763555
149562, 0.047884032, -0.34476504, 9.749189
149572, 0.033518825, -0.33997664, 9.725247
149582, 0.047884032, -0.33039984, 9.773131
149597, 0.023942016, -0.36391866, 9.773131
149602, 0.02873042, -0.37828386, 9.77792
149613, 0.01436521, -0.33997664, 9.787497
149622, 0.023942016, -0.33518824, 9.782708
149632, 0.05746084, -0.35434186, 9.758766
149646, 0.062249243, -0.36870706, 9.77792
149651, -0.0047884034, -0.35913026, 9.763555
149663, 0.033518825, -0.32561144, 9.782708
149672, 0.04309563, -0.34476504, 9.749189
149682, 0.04309563, -0.34955344, 9.758766
149695, 0.0047884034, -0.34476504, 9.763555
149701, 0.05746084, -0.33518824, 9.80665
149713, 0.0047884034, -0.32561144, 9.768343
149722, 0.023942016, -0.37828386, 9.77792
149732, 0.05746084, -0.34955344, 9.734824
149747, 0.019153614, -0.29209262, 9.725247
149752, 0.019153614, -0.35434186, 9.763555
149763, 0.02873042, -0.34955344, 9.773131
149772, 0.038307227, -0.33997664, 9.782708
149782, 0.02873042, -0.35434186, 9.768343
149797, 0.02873042, -0.33997664, 9.758766
149802, 0.033518825, -0.34476504, 9.768343
149813, 0.038307227, -0.34476504, 9.749189
149822, 0.023942016, -0.33039984, 9.763555
149832, 0.01436521, -0.33997664, 9.77792
149846, 0.033518825, -0.34476504, 9.763555
149851, 0.06703765, -0.31603462, 9.730036
149862, 0.0047884034, -0.35434186, 9.753978
149872, 0.01436521, -0.34476504, 9.792285
149882, 0.01436521, -0.34476504, 9.725247
149895, 0.033518825, -0.33039984, 9.782708
149902, 0.02873042, -0.34955344, 9.744401
149917, 0.023942016, -0.34476504, 9.787497
149921, 0.02873042, -0.36391866, 9.749189
149933, 0.033518825, -0.320823, 9.782708
149945, 0.02873042, -0.35434186, 9.749189
149951, 0.009576807, -0.33518824, 9.773131
149961, 0.04309563, -0.36391866, 9.720459
149971, 0.04309563, -0.35434186, 9.773131
149981, 0.033518825, -0.33518824, 9.787497
149991, 0.05746084, -0.31603462, 9.782708
150001, 0.038307227, -0.35913026, 9.753978
150011, 0.009576807, -0.33039984, 9.782708
150021, 0.038307227, -0.34955344, 9.782708
150031, 0.02873042, -0.35434186, 9.753978
150042, 0.0047884034, -0.33997664, 9.782708
150051, 0.05267244, -0.34476504, 9.763555
150062, 0.033518825, -0.35434186, 9.77792
150071, -0.01436521, -0.36391866, 9.739613
150082, 0.019153614, -0.34955344, 9.763555
150095, 0.062249243, -0.35913026, 9.744401
150101, 0.023942016, -0.31124622, 9.787497
150112, 0.047884032, -0.34476504, 9.749189
150122, 0.033518825, -0.35434186, 9.758766
150132, 0.02873042, -0.33039984, 9.763555
150145, 0.04309563, -0.31603462, 9.753978
150151, 0.05267244, -0.35913026, 9.768343
150162, -0.0047884034, -0.32561144, 9.763555
150171, 0.047884032, -0.34955344, 9.744401
150181, 0.038307227, -0.33997664, 9.706094
150191, 0.033518825, -0.33039984, 9.758766
150200, 0.009576807, -0.33518824, 9.682152
150210, 0.038307227, -0.33518824, 9.854534
150223, 0.033518825, -0.33518824, 9.725247
150230, 0.01436521, -0.34476504, 9.77792
150242, 0.019153614, -0.34476504, 9.753978
150250, 0.019153614, -0.320823, 9.773131
150261, 0.019153614, -0.31124622, 9.792285
150270, 0.019153614, -0.33997664, 9.77792
150280, 0.04309563, -0.36870706, 9.710882
150292, 0.04309563, -0.33518824, 9.763555
150300, 0.033518825, -0.33518824, 9.773131
150310, 0.023942016, -0.33039984, 9.80665
150320, 0.047884032, -0.36391866, 9.710882
150330, 0.01436521, -0.33039984, 9.773131
150343, 0.009576807, -0.33039984, 9.773131
150350, 0.023942016, -0.36391866, 9.773131
150360, 0.033518825, -0.33997664, 9.749189
150370, 0.04309563, -0.33518824, 9.739613
150380, 0.038307227, -0.35434186, 9.744401
150394, 0.009576807, -0.34955344, 9.782708
150400, 0.0047884034, -0.33518824, 9.749189
150410, 0.047884032, -0.34476504, 9.768343
150425, 0.0047884034, -0.35913026, 9.749189
150430, 0.02873042, -0.35913026, 9.773131
150441, 0.038307227, -0.34476504, 9.758766
150450, 0.033518825, -0.31124622, 9.797073
150460, 0.02873042, -0.35434186, 9.749189
150470, -0.01436521, -0.35434186, 9.77792
150480, 0.01436521, -0.34476504, 9.763555
150492, 0.01436521, -0.33518824, 9.782708
150500, 0.0047884034, -0.32561144, 9.768343
150510, 0.023942016, -0.34955344, 9.768343
150520, 0.038307227, -0.33997664, 9.763555
150530, 0.02873042, -0.36391866, 9.782708
150545, 0.047884032, -0.34476504, 9.773131
150550, 0.062249243, -0.31603462, 9.758766
150560, 0.038307227, -0.33039984, 9.797073
150570, 0.009576807, -0.35434186, 9.787497
150580, 0.02873042, -0.33518824, 9.787497
150591, 0.009576807, -0.36391866, 9.773131
150600, 0.019153614, -0.32561144, 9.749189
150610, 0.04309563, -0.35913026, 9.749189
150620, 0.04309563, -0.35434186, 9.749189
150630, 0.02873042, -0.35434186, 9.744401
150643, 0.019153614, -0.34476504, 9.782708
150650, 0.009576807, -0.35434186, 9.773131
150660, 0.01436521, -0.36870706, 9.797073
150670, 0.0047884034, -0.34476504, 9.763555
150680, 0.038307227, -0.33518824, 9.80665
150691, 0.023942016, -0.36391866, 9.787497
150700, 0.019153614, -0.35913026, 9.768343
150710, 0.023942016, -0.35434186, 9.763555
150720, 0.019153614, -0.34476504, 9.749189
150730, 0.023942016, -0.33039984, 9.768343
150741, 0.038307227, -0.34955344, 9.77792
150750, 0.02873042, -0.33997664, 9.749189
150760, 0.033518825, -0.32561144, 9.744401
150770, 0.02873042, -0.34955344, 9.758766
150780, 0.033518825, -0.35434186, 9.744401
150791, 0.023942016, -0.36391866, 9.77792
150800, 0.023942016, -0.36391866, 9.768343
150810, 0.019153614, -0.34955344, 9.773131
150820, 0.033518825, -0.34476504, 9.763555
150830, 0.02873042, -0.34476504, 9.768343
150843, 0.019153614, -0.35434186, 9.744401
150850, 0.038307227, -0.34476504, 9.753978
150860, 0.033518825, -0.33518824, 9.763555
150874, 0.033518825, -0.34476504, 9.734824
150880, 0.019153614, -0.31603462, 9.753978
150891, -0.01436521, -0.35913026, 9.768343
150900, 0.023942016, -0.34955344, 9.77792
150911, 0.01436521, -0.33518824, 9.77792
150924, 0.023942016, -0.35913026, 9.768343
150930, 0.033518825, -0.36870706, 9.782708
150941, 0.033518825, -0.35434186, 9.768343
150950, 0.019153614, -0.35434186, 9.758766
150960, 0.05267244, -0.36391866, 9.749189
150975, 0.019153614, -0.37349546, 9.730036
150980, 0.023942016, -0.35434186, 9.787497
150991, -0.0047884034, -0.33518824, 9.730036
151000, 0.02873042, -0.33997664, 9.739613
151010, 0.04309563, -0.36391866, 9.744401
151025, 0.01436521, -0.35913026, 9.787497
151030, 0.019153614, -0.33997664, 9.753978
151042, 0.019153614, -0.34955344, 9.792285
151050, 0.009576807, -0.36391866, 9.773131
151060, 0.02873042, -0.320823, 9.768343
151075, 0.038307227, -0.34955344, 9.773131
151080, 0.01436521, -0.33997664, 9.782708
151091, 0.047884032, -0.33997664, 9.739613
151100, 0.04309563, -0.34476504, 9.744401
151110, 0.01436521, -0.34955344, 9.773131
151124, 0.023942016, -0.33997664, 9.749189
151130, 0.05267244, -0.35434186, 9.773131
151141, 0.023942016, -0.33039984, 9.720459
151150, 0.023942016, -0.31603462, 9.753978
151160, 0.019153614, -0.33997664, 9.725247
151174, 0.019153614, -0.35434186, 9.797073
151181, 0.033518825, -0.35913026, 9.749189
151191, 0.023942016, -0.33997664, 9.758766
151200, 0.04309563, -0.33997664, 9.768343
151210, 0.05746084, -0.320823, 9.782708
151224, 0.033518825, -0.36391866, 9.749189
151230, 0.023942016, -0.36391866, 9.763555
151241, 0.04309563, -0.33997664, 9.773131
151250, 0.04309563, -0.35913026, 9.768343
151260, 0.01436521, -0.34476504, 9.744401
151275, 0.038307227, -0.33997664, 9.797073
151280, 0.023942016, -0.33997664, 9.758766
151290, 0.047884032, -0.35434186, 9.801862
151300, 0.038307227, -0.35434186, 9.734824
151310, 0.038307227, -0.33997664, 9.758766
151324, 0.023942016, -0.33039984, 9.734824
151330, 0.01436521, -0.34955344, 9.768343
151341, 0.02873042, -0.34476504, 9.749189
151350, 0.047884032, -0.30645782, 9.739613
151361, 0.047884032, -0.34476504, 9.758766
151374, 0.05267244, -0.36870706, 9.758766
151380, 0.023942016, -0.34476504, 9.753978
151392, -0.009576807, -0.31124622, 9.734824
151400, 0.047884032, -0.35434186, 9.773131
151410, 0.009576807, -0.33039984, 9.768343
151424, 0.01436521, -0.35913026, 9.744401
151430, 0.047884032, -0.36391866, 9.773131
151441, 0.019153614, -0.35434186, 9.801862
151450, 0.047884032, -0.33997664, 9.749189
151460, 0.02873042, -0.34955344, 9.768343
151474, 0.047884032, -0.33997664, 9.763555
151480, -0.0047884034, -0.35434186, 9.787497
151490, 0.047884032, -0.34955344, 9.744401
151500, 0.0047884034, -0.33518824, 9.782708
151510, 0.009576807, -0.33039984, 9.715671
151524, 0.019153614, -0.35913026, 9.763555
151530, 0.023942016, -0.33518824, 9.77792
151541, 0.033518825, -0.33039984, 9.753978
151550, 0.01436521, -0.33997664, 9.768343
151560, 0.04309563, -0.33518824, 9.739613
151574, 0.06703765, -0.320823, 9.753978
151580, 0.033518825, -0.35913026, 9.787497
151590, 0.01436521, -0.33039984, 9.773131
151600, 0.05267244, -0.33039984, 9.739613
151610, 0.038307227, -0.35913026, 9.758766
151621, 0.01436521, -0.33518824, 9.782708
151630, 0.04309563, -0.34955344, 9.753978
151640, 0.04309563, -0.32561144, 9.768343
151650, 0.01436521, -0.33039984, 9.787497
151661, 0.0047884034, -0.35913026, 9.768343
151671, 0.0047884034, -0.34955344, 9.80665
151681, 0.038307227, -0.33518824, 9.77792
151691, 0.038307227, -0.35434186, 9.744401
151701, 0.04309563, -0.34476504, 9.739613
151711, 0.01436521, -0.34955344, 9.763555
151721, 0.023942016, -0.34476504, 9.763555
151730, 0.023942016, -0.33039984, 9.753978
151741, 0.01436521, -0.34955344, 9.787497
151750, 0.01436521, -0.33518824, 9.744401
151760, 0.04309563, -0.320823, 9.763555
151771, 0.01436521, -0.36391866, 9.773131
151781, 0.04309563, -0.38307226, 9.782708
151791, 0.02873042, -0.33997664, 9.763555
151801, 0.01436521, -0.33518824, 9.77792
151811, 0.033518825, -0.33997664, 9.744401
151821, 0.023942016, -0.34955344, 9.753978
151831, 0.033518825, -0.37828386, 9.768343
151840, 0.038307227, -0.32561144, 9.753978
151850, 0.038307227, -0.31124622, 9.758766
151861, 0.038307227, -0.32561144, 9.768343
151873, 0.05267244, -0.36870706, 9.734824
151880, 0.033518825, -0.32561144, 9.763555
151890, 0.0047884034, -0.30645782, 9.753978
151900, 0.02873042, -0.36391866, 9.744401
151910, 0.02873042, -0.34955344, 9.753978
151923, 0.023942016, -0.34955344, 9.753978
151930, 0.047884032, -0.34476504, 9.725247
151941, 0.019153614, -0.33997664, 9.787497
151950, 0.04309563, -0.35913026, 9.753978
151960, 0.05746084, -0.33039984, 9.773131
151971, 0.009576807, -0.29688102, 9.797073
151980, 0.0047884034, -0.37828386, 9.744401
151991, 0.02873042, -0.40222588, 9.768343
152000, 0.0047884034, -0.320823, 9.763555
152010, 0.04309563, -0.30645782, 9.763555
152021, 0.04309563, -0.37349546, 9.77792
152030, 0.01436521, -0.35434186, 9.773131
152041, 0.06703765, -0.33518824, 9.763555
152050, 0.038307227, -0.33039984, 9.758766
152061, 0.009576807, -0.33997664, 9.744401
152071, 0.01436521, -0.33518824, 9.782708
152080, 0.05267244, -0.38307226, 9.730036
152091, 0.02873042, -0.33518824, 9.792285
152100, 0.01436521, -0.31603462, 9.734824
152111, 0.04309563, -0.35913026, 9.744401
152121, 0.023942016, -0.33997664, 9.758766
152133, 0.038307227, -0.35434186, 9.77792
152140, 0.04309563, -0.36870706, 9.753978
152150, 0.033518825, -0.33997664, 9.744401
152160, -0.0047884034, -0.33039984, 9.753978
152173, 0.02873042, -0.37349546, 9.801862
152180, 0.02873042, -0.34476504, 9.763555
152190, 0.019153614, -0.34476504, 9.80665
152200, 0.01436521, -0.34476504, 9.758766
152210, 0.05746084, -0.35913026, 9.763555
152223, 0.023942016, -0.31603462, 9.763555
152230, 0.02873042, -0.34476504, 9.758766
152240, -0.0047884034, -0.36391866, 9.782708
152250, -0.01436521, -0.33039984, 9.753978
152260, 0.01436521, -0.36391866, 9.763555
152273, 0.02873042, -0.33518824, 9.768343
152280, 0.01436521, -0.35434186, 9.753978
152290, 0.02873042, -0.35913026, 9.768343
152300, 0.023942016, -0.34476504, 9.739613
152310, -0.0047884034, -0.37828386, 9.753978
152323, 0.009576807, -0.36391866, 9.768343
152330, 0.009576807, -0.32561144, 9.749189
152341, 0.02873042, -0.33518824, 9.744401
152350, 0.019153614, -0.33997664, 9.753978
152360, 0.009576807, -0.33518824, 9.753978
152370, 0.023942016, -0.35434186, 9.749189
152380, 0.038307227, -0.33518824, 9.758766
152390, 0.038307227, -0.320823, 9.816227
152400, 0.033518825, -0.32561144, 9.744401
152411, 0.023942016, -0.35434186, 9.797073
152421, 0.038307227, -0.35913026, 9.782708
152430, -0.0047884034, -0.320823, 9.773131
152441, 0.04309563, -0.30645782, 9.77792
152450, 0.023942016, -0.34476504, 9.782708
152460, 0.047884032, -0.38307226, 9.753978
152470, 0.01436521, -0.33997664, 9.768343
152480, 0.019153614, -0.36391866, 9.77792
152490, 0.033518825, -0.31124622, 9.763555
152500, 0.023942016, -0.320823, 9.773131
152510, 0.05746084, -0.320823, 9.734824
152520, -0.01436521, -0.35913026, 9.739613
152530, 0.01436521, -0.35434186, 9.768343
152540, 0.04309563, -0.33997664, 9.782708
152550, 0.038307227, -0.33039984, 9.792285
152560, 0.01436521, -0.34955344, 9.77792
152570, 0.019153614, -0.33039984, 9.773131
152581, 0.019153614, -0.33039984, 9.758766
152590, 0.02873042, -0.35913026, 9.758766
152601, 0.0047884034, -0.36391866, 9.739613
152611, 0.023942016, -0.33997664, 9.758766
152623, 0.07182605, -0.33997664, 9.753978
152630, -0.019153614, -0.34955344, 9.768343
152640, -0.019153614, -0.33518824, 9.763555
152650, 0.023942016, -0.36870706, 9.734824
152660, 0.023942016, -0.33997664, 9.744401
152673, 0.02873042, -0.36870706, 9.763555
152680, -0.0047884034, -0.33997664, 9.739613
152690, 0.009576807, -0.36391866, 9.734824
152700, 0.01436521, -0.34476504, 9.80665
152711, 0.062249243, -0.34955344, 9.763555
152725, 0.023942016, -0.31603462, 9.773131
152730, 0.023942016, -0.35913026, 9.758766
152740, 0.019153614, -0.36870706, 9.77792
152750, 0.023942016, -0.29688102, 9.797073
152760, 0.038307227, -0.33997664, 9.792285
152772, 0.01436521, -0.33997664, 9.749189
152780, 0.019153614, -0.36870706, 9.768343
152790, 0.047884032, -0.33518824, 9.773131
152801, 0.023942016, -0.33039984, 9.763555
152810, 0.019153614, -0.33518824, 9.730036
152823, 0.019153614, -0.36870706, 9.773131
152830, 0.023942016, -0.33039984, 9.768343
152840, 0.009576807, -0.34955344, 9.768343
152850, 0.01436521, -0.35913026, 9.768343
152860, 0.038307227, -0.34476504, 9.787497
152873, 0.033518825, -0.31124622, 9.782708
152880, 0.023942016, -0.33997664, 9.768343
152890, 0.02873042, -0.33997664, 9.753978
152900, 0.038307227, -0.33039984, 9.710882
152910, 0.05267244, -0.36391866, 9.758766
152922, 0.023942016, -0.33518824, 9.782708
152930, 0.0047884034, -0.33518824, 9.792285
152940, 0.01436521, -0.33518824, 9.758766
152950, 0.038307227, -0.35434186, 9.753978
152960, 0.019153614, -0.35434186, 9.768343
152973, 0.047884032, -0.33039984, 9.787497
152980, 0.009576807, -0.33518824, 9.734824
152990, 0.02873042, -0.33518824, 9.753978
153000, 0.038307227, -0.35913026, 9.744401
153011, 0.0047884034, -0.320823, 9.749189
153022, 0.04309563, -0.36391866, 9.773131
153030, 0.02873042, -0.36391866, 9.763555
153040, 0.04309563, -0.31603462, 9.739613
153050, 0.02873042, -0.33518824, 9.797073
153060, 0.01436521, -0.36870706, 9.739613
153072, 0.05267244, -0.34955344, 9.758766
153080, 0.038307227, -0.31124622, 9.773131
153091, 0.01436521, -0.31603462, 9.782708
153100, 0.04309563, -0.35913026, 9.744401
153110, 0.033518825, -0.35913026, 9.749189
153124, 0.02873042, -0.33518824, 9.77792
153130, 0.05746084, -0.32561144, 9.763555
153140, 0.038307227, -0.36391866, 9.730036
153150, 0.019153614, -0.33518824, 9.725247
153160, 0.023942016, -0.31124622, 9.768343
153172, 0.009576807, -0.33039984, 9.763555
153180, 0.023942016, -0.32561144, 9.753978
153190, 0.047884032, -0.32561144, 9.739613
153200, 0.033518825, -0.35434186, 9.744401
153210, 0.0047884034, -0.31603462, 9.730036
153222, 0.02873042, -0.35913026, 9.768343
153230, 0.02873042, -0.34955344, 9.768343
153240, 0.0047884034, -0.31603462, 9.763555
153255, 0.0047884034, -0.33518824, 9.77792
153260, 0.033518825, -0.31124622, 9.715671
153272, 0.019153614, -0.32561144, 9.734824
153280, 0.019153614, -0.320823, 9.787497
153290, 0.023942016, -0.35913026, 9.720459
153306, 0.047884032, -0.34955344, 9.753978
153310, 0.04309563, -0.320823, 9.801862
153323, 0.01436521, -0.34476504, 9.749189
153330, 0.02873042, -0.34955344, 9.768343
153340, 0.009576807, -0.36391866, 9.773131
153356, 0.009576807, -0.34955344, 9.787497
153360, 0.019153614, -0.35434186, 9.739613
153372, 0.047884032, -0.34476504, 9.749189
153380, 0.033518825, -0.35434186, 9.782708
153391, -0.01436521, -0.33518824, 9.763555
153406, 0.02873042, -0.33997664, 9.768343
153410, 0.033518825, -0.35913026, 9.80665
153423, 0.033518825, -0.33997664, 9.744401
153430, 0.023942016, -0.34955344, 9.782708
153440, 0.023942016, -0.33518824, 9.763555
153454, 0.019153614, -0.33997664, 9.811439
153460, 0.038307227, -0.34476504, 9.753978
153471, 0.047884032, -0.33997664, 9.77792
153480, 0.0047884034, -0.31603462, 9.763555
153491, 0.04309563, -0.33518824, 9.763555
153505, -0.0047884034, -0.33997664, 9.77792
153510, 0.047884032, -0.33039984, 9.768343
153521, 0.009576807, -0.33039984, 9.749189
153530, 0.062249243, -0.36391866, 9.768343
153540, 0.033518825, -0.33039984, 9.744401
153554, 0.038307227, -0.33039984, 9.730036
153560, 0.01436521, -0.33997664, 9.744401
153571, -0.0047884034, -0.39743748, 9.758766
153580, 0.009576807, -0.35913026, 9.763555
153590, 0.0047884034, -0.31603462, 9.720459
153606, 0.019153614, -0.34476504, 9.763555
153610, -0.0047884034, -0.33997664, 9.768343
153622, 0.0047884034, -0.32561144, 9.753978
153630, 0.033518825, -0.34476504, 9.753978
153640, 0.05746084, -0.35434186, 9.768343
153655, -0.009576807, -0.320823, 9.710882
153660, 0.08619126, -0.35913026, 9.782708
153672, 0.009576807, -0.34955344, 9.744401
153680, 0.023942016, -0.31603462, 9.787497
153691, 0.038307227, -0.34955344, 9.768343
153705, 0.009576807, -0.32561144, 9.768343
153710, 0.01436521, -0.33039984, 9.768343
153724, 0.062249243, -0.34476504, 9.811439
153730, 0.02873042, -0.33997664, 9.773131
153740, 0.0047884034, -0.32561144, 9.744401
153756, 0.05267244, -0.36391866, 9.739613
153760, 0.01436521, -0.35434186, 9.730036
153771, 0.019153614, -0.34955344, 9.77792
153780, 0.033518825, -0.34476504, 9.758766
153790, 0.01436521, -0.35913026, 9.734824
153806, 0.01436521, -0.320823, 9.725247
153810, 0.038307227, -0.33997664, 9.763555
153821, 0.047884032, -0.32561144, 9.768343
153830, 0.019153614, -0.33997664, 9.768343
153840, 0.033518825, -0.34476504, 9.787497
153855, 0.033518825, -0.33997664, 9.773131
153860, 0.01436521, -0.33997664, 9.744401
153871, 0.023942016, -0.36870706, 9.749189
153880, 0.038307227, -0.33039984, 9.744401
153890, 0.04309563, -0.34955344, 9.768343
153905, -0.009576807, -0.36391866, 9.749189
153910, 0.019153614, -0.34476504, 9.758766
153923, -0.023942016, -0.34476504, 9.744401
153930, 0.009576807, -0.36391866, 9.768343
153940, 0.0047884034, -0.33997664, 9.763555
153954, 0.019153614, -0.33997664, 9.768343
153960, 0.04309563, -0.35913026, 9.753978
153971, 0.07182605, -0.35913026, 9.744401
153980, 0.009576807, -0.35434186, 9.753978
153990, 0.02873042, -0.34955344, 9.758766
154004, 0.038307227, -0.34476504, 9.763555
154010, 0.01436521, -0.32561144, 9.753978
154021, 0.05267244, -0.32561144, 9.782708
154030, 0.033518825, -0.34955344, 9.758766
154041, 0.019153614, -0.35913026, 9.753978
154054, 0.019153614, -0.30645782, 9.744401
154060, 0.02873042, -0.320823, 9.763555
154071, 0.02873042, -0.34955344, 9.763555
154080, 0.0047884034, -0.34955344, 9.773131
154090, 0.038307227, -0.35913026, 9.792285
154104, 0.02873042, -0.34476504, 9.768343
154110, 0.019153614, -0.32561144, 9.782708
154121, 0.023942016, -0.33039984, 9.758766
154130, 0.019153614, -0.36391866, 9.768343
154140, -0.01436521, -0.33518824, 9.773131
154154, -0.01436521, -0.36391866, 9.787497
154160, 0.038307227, -0.37349546, 9.758766
154171, 0.019153614, -0.32561144, 9.763555
154180, 0.019153614, -0.33997664, 9.763555
154190, 0.02873042, -0.34476504, 9.782708
154204, 0.023942016, -0.34476504, 9.768343
154210, -0.01436521, -0.34476504, 9.77792
154221, 0.009576807, -0.320823, 9.739613
154230, 0.01436521, -0.34955344, 9.739613
154240, 0.019153614, -0.33518824, 9.749189
154254, 0.01436521, -0.34955344, 9.753978
154260, 0.033518825, -0.33518824, 9.763555
154271, 0.02873042, -0.34955344, 9.782708
154280, 0.02873042, -0.33518824, 9.77792
154290, 0.019153614, -0.34955344, 9.758766
154305, 0.019153614, -0.34955344, 9.734824
154310, 0.04309563, -0.34955344, 9.763555
154321, 0.019153614, -0.34955344, 9.773131
154330, 0.019153614, -0.34476504, 9.758766
154352, -0.0047884034, -0.34476504, 9.749189
154353, 0.019153614, -0.32561144, 9.758766
154366, 0.023942016, -0.33997664, 9.763555
154377, 0.019153614, -0.32561144, 9.739613
154380, 0.023942016, -0.35434186, 9.787497
154391, 0.0047884034, -0.35434186, 9.768343
154408, 0.019153614, -0.33997664, 9.768343
154411, 0.04309563, -0.35434186, 9.758766
154425, 0.009576807, -0.31603462, 9.753978
154430, 0.0047884034, -0.33039984, 9.763555
154441, 0.02873042, -0.35434186, 9.758766
154458, 0.04309563, -0.31603462, 9.787497
154460, 0.019153614, -0.320823, 9.768343
154474, 0.023942016, -0.36391866, 9.773131
154481, 0.023942016, -0.33518824, 9.787497
154491, 0.04309563, -0.34476504, 9.753978
154508, 0.019153614, -0.33039984, 9.753978
154511, 0.0047884034, -0.33039984, 9.773131
154525, 0.033518825, -0.33039984, 9.758766
154531, 0.02873042, -0.33518824, 9.80665
154541, 0.0047884034, -0.320823, 9.77792
154558, -0.009576807, -0.36391866, 9.787497
154561, 0.033518825, -0.33039984, 9.773131
154576, 0.0047884034, -0.32561144, 9.758766
154581, 0.023942016, -0.37828386, 9.792285
154594, 0.023942016, -0.36870706, 9.821015
154609, -0.009576807, -0.33518824, 9.758766
154610, 0.05267244, -0.33518824, 9.763555
154626, 0.009576807, -0.32561144, 9.763555
154631, 0.0047884034, -0.33997664, 9.749189
154643, 0.0047884034, -0.33997664, 9.753978
154659, 0.023942016, -0.32561144, 9.797073
154661, 0.019153614, -0.34955344, 9.763555
154675, 0.038307227, -0.33518824, 9.792285
154680, 0.033518825, -0.35434186, 9.725247
154691, 0.01436521, -0.32561144, 9.792285
154707, 0.02873042, -0.34476504, 9.753978
154710, 0.038307227, -0.35434186, 9.773131
154723, -0.0047884034, -0.32561144, 9.773131
154730, 0.023942016, -0.34955344, 9.753978
154742, -0.0047884034, -0.33997664, 9.768343
154758, 0.033518825, -0.320823, 9.768343
154761, 0.038307227, -0.33518824, 9.758766
154775, 0.023942016, -0.34955344, 9.787497
154781, 0.06703765, -0.33518824, 9.797073
154792, 0.009576807, -0.34476504, 9.758766
154810, -0.009576807, -0.31603462, 9.792285
154811, 0.023942016, -0.32561144, 9.763555
154825, 0.01436521, -0.33518824, 9.773131
154830, 0.01436521, -0.33039984, 9.710882
154841, 0.038307227, -0.32561144, 9.77792
154858, -0.0047884034, -0.33039984, 9.753978
154860, -0.0047884034, -0.33518824, 9.773131
154873, 0.023942016, -0.34476504, 9.739613
154881, 0.009576807, -0.33039984, 9.782708
154891, 0.019153614, -0.32561144, 9.758766
154906, 0.023942016, -0.35913026, 9.768343
154910, -0.009576807, -0.37349546, 9.758766
154924, 0.02873042, -0.34955344, 9.763555
154931, 0.0047884034, -0.33997664, 9.749189
154940, 0.01436521, -0.32561144, 9.773131
154951, 0.038307227, -0.33997664, 9.773131
154960, 0.019153614, -0.33518824, 9.763555
154972, 0.019153614, -0.33997664, 9.782708
154981, 0.0047884034, -0.35913026, 9.763555
154990, 0.02873042, -0.320823, 9.77792
155001, 0.033518825, -0.33518824, 9.758766
155010, 0.02873042, -0.33039984, 9.782708
155022, -0.009576807, -0.35434186, 9.749189
155030, -0.009576807, -0.31603462, 9.797073
155041, 0.01436521, -0.36391866, 9.749189
155058, 0.05267244, -0.32561144, 9.782708
155060, 0.0047884034, -0.33997664, 9.753978
155074, -0.0047884034, -0.33518824, 9.768343
155080, 0.02873042, -0.35434186, 9.734824
155091, 0.0047884034, -0.34955344, 9.801862
155102, 0.019153614, -0.31124622, 9.720459
155111, 0.009576807, -0.3878607, 9.768343
155124, -0.009576807, -0.34955344, 9.753978
155131, 0.019153614, -0.33039984, 9.821015
155141, -0.0047884034, -0.36391866, 9.739613
155157, 0.009576807, -0.33997664, 9.792285
155160, -0.0047884034, -0.34476504, 9.753978
155174, 0.023942016, -0.32561144, 9.787497
155181, 0.019153614, -0.33039984, 9.753978
155193, -0.01436521, -0.35434186, 9.768343
155202, 0.02873042, -0.32561144, 9.797073
155211, 0.019153614, -0.31124622, 9.773131
155223, 0.0047884034, -0.34955344, 9.749189
155231, 0.0047884034, -0.35913026, 9.782708
155241, 0.0047884034, -0.36870706, 9.768343
155252, 0.01436521, -0.33039984, 9.77792
155261, 0.01436521, -0.320823, 9.758766
155277, 0.038307227, -0.36870706, 9.744401
155293, 0.05267244, -0.35913026, 9.744401
155293, 0.01436521, -0.34955344, 9.792285
155302, 0.019153614, -0.37349546, 9.782708
155311, 0.0047884034, -0.33997664, 9.773131
155324, 0.01436521, -0.35434186, 9.768343
155330, 0.038307227, -0.31603462, 9.763555
155341, 0.009576807, -0.34955344, 9.763555
155352, 0.0047884034, -0.36870706, 9.782708
155361, 0.023942016, -0.33518824, 9.768343
155376, 0.02873042, -0.31603462, 9.749189
155391, 0.038307227, -0.31603462, 9.77792
155392, 0.04309563, -0.34476504, 9.768343
155402, 0.033518825, -0.34955344, 9.797073
155411, 0.019153614, -0.33039984, 9.787497
155421, 0.0047884034, -0.35434186, 9.763555
155430, 0.019153614, -0.32561144, 9.758766
155443, 0.009576807, -0.33518824, 9.753978
155452, 0.047884032, -0.34476504, 9.758766
155461, 0.04309563, -0.35434186, 9.768343
155475, 0.04309563, -0.34955344, 9.787497
155485, 0.023942016, -0.33518824, 9.763555
155491, 0.01436521, -0.33039984, 9.773131
155502, 0.038307227, -0.35913026, 9.753978
155511, 0.033518825, -0.35913026, 9.787497
155525, -0.023942016, -0.30645782, 9.773131
155535, 0.023942016, -0.39264908, 9.763555
155541, 0.009576807, -0.35434186, 9.749189
155559, 0.019153614, -0.32561144, 9.768343
155561, 0.02873042, -0.36391866, 9.77792
155575, 0.033518825, -0.34955344, 9.77792
155586, -0.01436521, -0.32561144, 9.725247
155591, 0.047884032, -0.33039984, 9.768343
155607, 0.01436521, -0.31124622, 9.763555
155611, 0.038307227, -0.32561144, 9.744401
155621, 0.033518825, -0.39743748, 9.744401
155641, 0.009576807, -0.35434186, 9.730036
155642, 0.009576807, -0.32561144, 9.763555
155655, 0.02873042, -0.31124622, 9.768343
155661, 0.05746084, -0.33518824, 9.744401
155670, 0.02873042, -0.32561144, 9.734824
155682, 0.033518825, -0.35434186, 9.77792
155690, -0.0047884034, -0.34476504, 9.768343
155700, 0.01436521, -0.320823, 9.768343
155710, 0.02873042, -0.35434186, 9.758766
155721, 0.033518825, -0.34476504, 9.77792
155732, -0.0047884034, -0.34476504, 9.739613
155741, 0.01436521, -0.39264908, 9.763555
155751, -0.023942016, -0.36870706, 9.749189
155761, 0.009576807, -0.35913026, 9.797073
155771, 0.02873042, -0.33518824, 9.720459
155780, 0.02873042, -0.33997664, 9.763555
155790, -0.009576807, -0.36391866, 9.725247
155800, 0.01436521, -0.34955344, 9.763555
155810, 0.023942016, -0.35913026, 9.749189
155820, 0.009576807, -0.32561144, 9.801862
155832, 0.01436521, -0.35434186, 9.725247
155840, 0.01436521, -0.36391866, 9.797073
155850, 0.01436521, -0.33997664, 9.787497
155860, -0.009576807, -0.32561144, 9.77792
155870, -0.009576807, -0.35913026, 9.768343
155882, 0.019153614, -0.32561144, 9.758766
155890, 0.023942016, -0.36391866, 9.753978
155900, 0.0047884034, -0.34955344, 9.77792
155910, -0.01436521, -0.33997664, 9.758766
155921, 0.02873042, -0.33997664, 9.763555
155932, 0.009576807, -0.34955344, 9.773131
155940, -0.019153614, -0.33518824, 9.749189
155951, 0.02873042, -0.35434186, 9.749189
155960, -0.01436521, -0.36870706, 9.753978
155970, 0.038307227, -0.320823, 9.787497
155982, 0.023942016, -0.33039984, 9.739613
155990, -0.0047884034, -0.35913026, 9.787497
156001, -0.019153614, -0.37349546, 9.758766
156010, 0.0047884034, -0.35913026, 9.801862
156021, 0.02873042, -0.33518824, 9.753978
156032, -0.0047884034, -0.35913026, 9.768343
156040, 0.019153614, -0.34955344, 9.739613
156051, 0.038307227, -0.35434186, 9.768343
156060, 0.009576807, -0.33997664, 9.749189
156071, 0.009576807, -0.33518824, 9.753978
156082, 0.02873042, -0.34476504, 9.749189
156090, 0.01436521, -0.37349546, 9.763555
156101, 0.01436521, -0.34476504, 9.816227
156110, 0.01436521, -0.33997664, 9.763555
156121, 0.01436521, -0.34955344, 9.753978
156131, 0.01436521, -0.38307226, 9.739613
156140, 0.033518825, -0.37349546, 9.787497
156151, -0.019153614, -0.34476504, 9.792285
156160, 0.047884032, -0.34476504, 9.77792
156171, 0.02873042, -0.35434186, 9.758766
156181, 0.009576807, -0.31124622, 9.782708
156190, 0.038307227, -0.34476504, 9.753978
156201, -0.01436521, -0.33039984, 9.77792
156211, -0.019153614, -0.33039984, 9.753978
156221, 0.038307227, -0.35434186, 9.744401
156234, 0.038307227, -0.35434186, 9.763555
156241, 0.02873042, -0.320823, 9.773131
156252, 0.02873042, -0.33039984, 9.77792
156261, 0.01436521, -0.37828386, 9.768343
156271, 0.019153614, -0.34955344, 9.792285
156285, 0.019153614, -0.33518824, 9.782708
156291, 0.02873042, -0.35434186, 9.782708
156303, 0.023942016, -0.33518824, 9.758766
156312, 0.01436521, -0.32561144, 9.725247
156322, 0.01436521, -0.32561144, 9.77792
156337, 0.033518825, -0.34476504, 9.763555
156341, 0.019153614, -0.34476504, 9.80665
156354, 0.023942016, -0.320823, 9.768343
156362, 0.033518825, -0.36870706, 9.739613
156372, 0.02873042, -0.36391866, 9.768343
156387, -0.02873042, -0.32561144, 9.730036
156391, 0.023942016, -0.33039984, 9.763555
156403, 0.019153614, -0.33997664, 9.734824
156411, -0.009576807, -0.35913026, 9.792285
156422, 0.06703765, -0.36391866, 9.739613
156437, 0.01436521, -0.34955344, 9.77792
156441, -0.038307227, -0.34476504, 9.782708
156454, 0.019153614, -0.37828386, 9.792285
156461, 0.04309563, -0.35434186, 9.797073
156472, 0.04309563, -0.32561144, 9.801862
156487, 0.033518825, -0.3878607, 9.763555
156492, 0.02873042, -0.35913026, 9.763555
156503, 0.019153614, -0.33997664, 9.753978
156511, 0.05267244, -0.33997664, 9.768343
156522, 0.01436521, -0.36870706, 9.758766
156537, 0.01436521, -0.34476504, 9.787497
156541, 0.047884032, -0.36391866, 9.787497
156553, 0.033518825, -0.34955344, 9.77792
156562, 0.023942016, -0.30645782, 9.797073
156572, 0.02873042, -0.34476504, 9.744401
156586, 0.038307227, -0.33997664, 9.797073
156591, 0.04309563, -0.33039984, 9.739613
156602, 0.02873042, -0.33518824, 9.80665
156611, 0.038307227, -0.35913026, 9.763555
156622, 0.04309563, -0.34955344, 9.782708
156637, 0.02873042, -0.33518824, 9.739613
156642, -0.0047884034, -0.33518824, 9.758766
156653, 0.01436521, -0.36391866, 9.744401
156662, 0.019153614, -0.37349546, 9.773131
156672, 0.019153614, -0.31124622, 9.725247
156687, -0.033518825, -0.33518824, 9.792285
156691, -0.047884032, -0.34476504, 9.758766
156703, 0.33997664, -0.5410896, 9.701305
156711, -0.009576807, -0.110133275, 9.734824
156722, -0.25378537, -0.23942018, 9.844957
156736, 0.12928689, -0.5793968, 9.768343
156742, 0.11971009, -0.2777274, 9.730036
156753, -0.05267244, -0.16280572, 9.758766
156762, 0.033518825, -0.46926352, 9.763555
156772, -0.023942016, -0.39743748, 9.782708
156786, -0.019153614, -0.22505496, 9.720459
156791, 0.10055647, -0.33039984, 9.715671
156802, 0.038307227, -0.4309563, 9.763555
156811, -0.07182605, -0.29209262, 9.792285
156822, 0.047884032, -0.33997664, 9.734824
156835, 0.08619126, -0.38307226, 9.758766
156841, -0.04309563, -0.272939, 9.763555
156851, -0.01436521, -0.36391866, 9.787497
156861, 0.08140286, -0.3878607, 9.734824
156871, 0.04309563, -0.2777274, 9.763555
156882, 0.0047884034, -0.32561144, 9.782708
156891, 0.047884032, -0.40222588, 9.749189
156901, 0.038307227, -0.36391866, 9.758766
156911, 0.05267244, -0.2873042, 9.801862
156921, 0.033518825, -0.37828386, 9.744401
156932, 0.033518825, -0.33997664, 9.792285
156940, 0.009576807, -0.33039984, 9.715671
156951, 0.023942016, -0.36391866, 9.744401
156961, 0.047884032, -0.36391866, 9.768343
156971, -0.033518825, -0.35434186, 9.77792
156982, -0.033518825, -0.36870706, 9.782708
156990, 0.023942016, -0.37349546, 9.749189
157000, 0.033518825, -0.32561144, 9.758766
157010, -0.01436521, -0.34955344, 9.773131
157020, -0.01436521, -0.33997664, 9.787497
157032, 0.01436521, -0.31124622, 9.744401
157040, 0.019153614, -0.35913026, 9.773131
157050, 0.02873042, -0.35434186, 9.77792
157061, -0.0047884034, -0.33518824, 9.782708
157071, 0.01436521, -0.30166942, 9.749189
157083, 0.023942016, -0.2873042, 9.773131
157090, 0.01436521, -0.33997664, 9.720459
157101, 0.033518825, -0.33518824, 9.749189
157110, 0.019153614, -0.30645782, 9.749189
157121, 0.05267244, -0.33997664, 9.730036
157132, 0.019153614, -0.37349546, 9.744401
157141, 0.0047884034, -0.33518824, 9.763555
157151, 0.01436521, -0.36870706, 9.749189
157161, 0.01436521, -0.33039984, 9.758766
157171, 0.023942016, -0.320823, 9.782708
157182, 0.023942016, -0.35434186, 9.792285
157190, 0.023942016, -0.33997664, 9.77792
157201, -0.0047884034, -0.37828386, 9.77792
157210, 0.023942016, -0.34955344, 9.782708
157221, 0.02873042, -0.34955344, 9.758766
157231, 0.0047884034, -0.35434186, 9.749189
157241, 0.0047884034, -0.37828386, 9.739613
157251, 0.023942016, -0.33997664, 9.801862
157261, 0.009576807, -0.35434186, 9.758766
157271, 0.01436521, -0.37828386, 9.749189
157282, 0.009576807, -0.33039984, 9.758766
157291, 0.019153614, -0.320823, 9.773131
157301, 0.033518825, -0.33518824, 9.749189
157311, 0.038307227, -0.33039984, 9.80665
157321, 0.01436521, -0.33997664, 9.768343
157331, -0.009576807, -0.33518824, 9.773131
157341, 0.02873042, -0.30166942, 9.77792
157351, 0.047884032, -0.33997664, 9.768343
157362, 0.038307227, -0.32561144, 9.758766
157371, 0.01436521, -0.39264908, 9.749189
157384, 0.009576807, -0.33518824, 9.749189
157391, 0.02873042, -0.30645782, 9.763555
157402, 0.076614454, -0.36391866, 9.720459
157412, 0.023942016, -0.33997664, 9.773131
157422, -0.01436521, -0.34476504, 9.773131
157435, 0.01436521, -0.33518824, 9.753978
157442, 0.038307227, -0.32561144, 9.744401
157452, 0.023942016, -0.320823, 9.782708
157467, 0.038307227, -0.31603462, 9.773131
157471, 0.038307227, -0.35434186, 9.758766
157484, 0.019153614, -0.33039984, 9.77792
157491, 0.023942016, -0.34955344, 9.730036
157502, 0.023942016, -0.31603462, 9.77792
157518, 0.04309563, -0.33997664, 9.744401
157522, 0.01436521, -0.37349546, 9.763555
157534, -0.0047884034, -0.35434186, 9.744401
157541, 0.01436521, -0.33039984, 9.811439
157551, 0.038307227, -0.37349546, 9.763555
157567, 0.019153614, -0.36870706, 9.739613
157571, -0.033518825, -0.35434186, 9.768343
157583, 0.0047884034, -0.35434186, 9.758766
157591, 0.009576807, -0.34955344, 9.758766
157602, 0.01436521, -0.36391866, 9.734824
157618, 0.01436521, -0.33518824, 9.768343
157622, 0.019153614, -0.33997664, 9.744401
157635, 0.02873042, -0.320823, 9.749189
157641, 0.05267244, -0.34955344, 9.739613
157652, 0.009576807, -0.34476504, 9.763555
157668, 0.009576807, -0.35913026, 9.734824
157672, 0.038307227, -0.34955344, 9.77792
157688, 0.019153614, -0.35434186, 9.77792
157691, 0.02873042, -0.32561144, 9.763555
157702, 0.023942016, -0.35434186, 9.763555
157718, 0.04309563, -0.31124622, 9.768343
157721, 0.04309563, -0.35434186, 9.763555
157735, 0.038307227, -0.34955344, 9.749189
157741, 0.019153614, -0.36391866, 9.753978
157752, 0.02873042, -0.35913026, 9.787497
157766, 0.02873042, -0.33039984, 9.744401
157771, 0.038307227, -0.34476504, 9.768343
157784, 0.02873042, -0.34476504, 9.782708
157791, -0.01436521, -0.35913026, 9.749189
157802, 0.033518825, -0.34476504, 9.77792
157811, 0.0047884034, -0.34955344, 9.782708
157822, 0.0047884034, -0.37349546, 9.753978
157835, 0.019153614, -0.3878607, 9.768343
157842, 0.0047884034, -0.31603462, 9.758766
157852, 0.019153614, -0.33039984, 9.744401
157861, 0.05746084, -0.34955344, 9.753978
157872, 0.023942016, -0.38307226, 9.763555
157884, 0.0047884034, -0.31603462, 9.768343
157891, 0.023942016, -0.32561144, 9.753978
157901, 0.009576807, -0.31124622, 9.768343
157917, 0.0047884034, -0.31603462, 9.744401
157921, 0.047884032, -0.33997664, 9.768343
157934, 0.02873042, -0.36391866, 9.739613
157941, 0.02873042, -0.33039984, 9.758766
157952, 0.01436521, -0.37349546, 9.734824
157967, 0.01436521, -0.33518824, 9.787497
157971, 0.047884032, -0.33518824, 9.782708
157984, 0.02873042, -0.35913026, 9.753978
157991, -0.0047884034, -0.34476504, 9.787497
158002, 0.023942016, -0.34476504, 9.744401
158018, 0.033518825, -0.36391866, 9.773131
158022, 0.04309563, -0.35434186, 9.734824
158034, 0.033518825, -0.35913026, 9.782708
158041, 0.0047884034, -0.37828386, 9.753978
158051, -0.0047884034, -0.37828386, 9.749189
158066, -0.009576807, -0.33518824, 9.763555
158071, 0.038307227, -0.34955344, 9.758766
158084, 0.019153614, -0.36391866, 9.758766
158091, 0.019153614, -0.35913026, 9.749189
158102, 0.019153614, -0.33997664, 9.744401
158118, 0.019153614, -0.34955344, 9.801862
158121, 0.01436521, -0.33518824, 9.763555
158134, 0.038307227, -0.36870706, 9.792285
158141, 0.019153614, -0.31124622, 9.749189
158152, 0.009576807, -0.33518824, 9.744401
158167, 0.038307227, -0.35434186, 9.782708
158171, 0.019153614, -0.33518824, 9.753978
158184, 0.02873042, -0.30166942, 9.77792
158191, 0.04309563, -0.35434186, 9.749189
158202, -0.0047884034, -0.36391866, 9.749189
158217, 0.0047884034, -0.33997664, 9.768343
158221, 0.038307227, -0.34476504, 9.725247
158234, 0.038307227, -0.36391866, 9.753978
158241, 0.038307227, -0.36391866, 9.758766
158252, 0.01436521, -0.34476504, 9.768343
158267, 0.019153614, -0.35913026, 9.758766
158271, 0.04309563, -0.35434186, 9.77792
158283, 0.033518825, -0.34476504, 9.768343
158291, 0.009576807, -0.37349546, 9.763555
158302, 0.019153614, -0.37828386, 9.768343
158317, 0.0047884034, -0.320823, 9.763555
158322, 0.047884032, -0.30166942, 9.768343
158334, 0.05267244, -0.33039984, 9.753978
158341, 0.033518825, -0.35913026, 9.749189
158352, 0.033518825, -0.33518824, 9.758766
158367, 0.033518825, -0.320823, 9.768343
158371, 0.033518825, -0.35434186, 9.758766
158384, -0.019153614, -0.31603462, 9.749189
158392, 0.0047884034, -0.35434186, 9.725247
158402, 0.01436521, -0.33039984, 9.782708
158418, 0.023942016, -0.33518824, 9.739613
158421, 0.038307227, -0.33518824, 9.77792
158434, 0.019153614, -0.33518824, 9.763555
158441, 0.033518825, -0.33518824, 9.753978
158452, 0.02873042, -0.35913026, 9.725247
158467, 0.0047884034, -0.34955344, 9.763555
158471, 0.019153614, -0.33997664, 9.758766
158483, -0.05746084, -0.39264908, 9.80665
158491, 0.076614454, -0.34476504, 9.797073
158502, 0.22026655, -0.23942018, 9.710882
158518, -0.11492168, -0.34955344, 9.816227
158521, -0.16759412, -0.49320555, 9.821015
158535, 0.095768064, -0.36391866, 9.758766
158541, 0.17238252, -0.22026655, 9.720459
158552, -0.062249243, -0.31603462, 9.77792
158566, -0.05746084, -0.38307226, 9.77792
158571, 0.10055647, -0.2633622, 9.763555
158583, 0.08619126, -0.30645782, 9.753978
158591, -0.01436521, -0.39264908, 9.787497
158602, -0.062249243, -0.34955344, 9.773131
158617, 0.07182605, -0.31603462, 9.739613
158621, 0.08140286, -0.33518824, 9.725247
158633, -0.023942016, -0.34476504, 9.763555
158642, -0.0047884034, -0.39264908, 9.763555
158652, 0.06703765, -0.33518824, 9.734824
158667, 0.047884032, -0.29688102, 9.768343
158671, -0.01436521, -0.36870706, 9.749189
158684, 0.01436521, -0.34955344, 9.782708
158691, 0.01436521, -0.33997664, 9.768343
158702, 0.023942016, -0.29688102, 9.744401
158717, 0.038307227, -0.35434186, 9.734824
158721, -0.0047884034, -0.33039984, 9.792285
158734, 0.019153614, -0.31603462, 9.749189
158741, 0.047884032, -0.33518824, 9.753978
158751, 0.01436521, -0.33518824, 9.715671
158766, -0.0047884034, -0.30645782, 9.763555
158771, 0.033518825, -0.35913026, 9.773131
158783, 0.0047884034, -0.35434186, 9.768343
158791, -0.009576807, -0.34476504, 9.768343
158802, 0.047884032, -0.35434186, 9.80665
158817, 0.01436521, -0.31603462, 9.739613
158821, 0.0047884034, -0.34476504, 9.753978
158833, 0.019153614, -0.36391866, 9.782708
158841, 0.01436521, -0.36391866, 9.758766
158852, 0.023942016, -0.33997664, 9.749189
158866, 0.023942016, -0.31124622, 9.782708
158871, 0.01436521, -0.33997664, 9.744401
158883, 0.038307227, -0.37828386, 9.768343
158891, 0.023942016, -0.33997664, 9.734824
158902, 0.02873042, -0.31603462, 9.77792
158916, 0.033518825, -0.35913026, 9.787497
158921, 0.04309563, -0.34955344, 9.768343
158933, 0.01436521, -0.34476504, 9.792285
158942, 0.019153614, -0.33039984, 9.773131
158952, 0.009576807, -0.33997664, 9.753978
158966, 0.009576807, -0.33997664, 9.77792
158971, 0.062249243, -0.34476504, 9.773131
158983, 0.02873042, -0.34955344, 9.768343
158991, 0.0047884034, -0.35913026, 9.77792
159002, 0.01436521, -0.36391866, 9.725247
159016, 0.009576807, -0.33518824, 9.797073
159022, 0.033518825, -0.34955344, 9.773131
159032, 0.019153614, -0.37349546, 9.792285
159042, 0.009576807, -0.34955344, 9.768343
159052, 0.038307227, -0.33039984, 9.744401
159066, 0.02873042, -0.33518824, 9.758766
159071, 0.05267244, -0.33518824, 9.749189
159082, 0.023942016, -0.33518824, 9.758766
159091, 0.033518825, -0.35913026, 9.753978
159102, 0.05267244, -0.29688102, 9.753978
159116, -0.023942016, -0.34476504, 9.768343
159121, -0.0047884034, -0.36870706, 9.763555
159132, 0.019153614, -0.29209262, 9.758766
159142, 0.038307227, -0.35434186, 9.744401
159152, -0.01436521, -0.35913026, 9.77792
159166, -0.01436521, -0.37349546, 9.797073
159171, 0.02873042, -0.35913026, 9.787497
159182, 0.01436521, -0.31124622, 9.768343
159191, 0.02873042, -0.35434186, 9.792285
159202, 0.01436521, -0.38307226, 9.792285
159215, -0.019153614, -0.36391866, 9.739613
159221, 0.009576807, -0.33039984, 9.782708
159232, 0.01436521, -0.39743748, 9.749189
159242, 0.0047884034, -0.34955344, 9.787497
159252, 0.01436521, -0.320823, 9.763555
159266, 0.023942016, -0.33039984, 9.792285
159271, 0.023942016, -0.33039984, 9.734824
159283, 0.02873042, -0.33518824, 9.763555
159291, 0.038307227, -0.36870706, 9.744401
159302, 0.009576807, -0.29209262, 9.77792
159315, -0.019153614, -0.30645782, 9.773131
159322, 0.01436521, -0.39264908, 9.797073
159333, -0.01436521, -0.39743748, 9.739613
159342, 0.023942016, -0.34476504, 9.77792
159352, 0.019153614, -0.30166942, 9.77792
159365, 0.023942016, -0.34476504, 9.768343
159371, -0.0047884034, -0.36391866, 9.758766
159382, 0.009576807, -0.34476504, 9.768343
159391, 0.033518825, -0.36391866, 9.782708
159402, 0.019153614, -0.33997664, 9.753978
159415, 0.019153614, -0.33518824, 9.758766
159422, 0.02873042, -0.320823, 9.734824
159432, 0.023942016, -0.320823, 9.763555
159442, 0.009576807, -0.34476504, 9.749189
159452, -0.01436521, -0.33039984, 9.744401
159465, 0.02873042, -0.33039984, 9.744401
159471, 0.0047884034, -0.33518824, 9.811439
159482, 0.023942016, -0.35434186, 9.792285
159491, 0.033518825, -0.33997664, 9.758766
159502, 0.0047884034, -0.33039984, 9.739613
159515, 0.009576807, -0.36391866, 9.744401
159522, 0.033518825, -0.34955344, 9.773131
159532, 0.01436521, -0.320823, 9.782708
159542, 0.02873042, -0.34476504, 9.763555
159552, 0.033518825, -0.35434186, 9.787497
159565, 0.009576807, -0.35913026, 9.739613
159571, -0.023942016, -0.36391866, 9.797073
159583, 0.023942016, -0.39264908, 9.730036
159591, -0.019153614, -0.34955344, 9.792285
159602, 0.019153614, -0.34476504, 9.758766
159615, 0.0047884034, -0.320823, 9.773131
159622, 0.033518825, -0.33997664, 9.730036
159632, 0.01436521, -0.33997664, 9.744401
159642, 0.038307227, -0.34955344, 9.797073
159652, 0.047884032, -0.33518824, 9.768343
159665, 0.01436521, -0.33518824, 9.768343
159671, 0.02873042, -0.35434186, 9.782708
159682, 0.019153614, -0.37349546, 9.773131
159691, 0.023942016, -0.32561144, 9.792285
159702, 0.08140286, -0.32561144, 9.787497
159715, 0.019153614, -0.38307226, 9.758766
159722, -0.009576807, -0.32561144, 9.768343
159732, 0.02873042, -0.31603462, 9.749189
159748, 0.02873042, -0.32561144, 9.773131
159751, 0.033518825, -0.33997664, 9.768343
159765, -0.01436521, -0.35913026, 9.763555
159771, 0.02873042, -0.34476504, 9.749189
159782, -0.009576807, -0.33518824, 9.77792
159791, 0.033518825, -0.32561144, 9.744401
159802, 0.02873042, -0.34476504, 9.768343
159815, -0.009576807, -0.32561144, 9.763555
159822, 0.019153614, -0.34476504, 9.749189
159832, 0.01436521, -0.32561144, 9.749189
159848, 0.009576807, -0.33997664, 9.763555
159851, 0.033518825, -0.34476504, 9.77792
159865, 0.01436521, -0.33518824, 9.744401
159871, 0.023942016, -0.35434186, 9.782708
159882, 0.009576807, -0.33518824, 9.768343
159898, 0.038307227, -0.33039984, 9.715671
159902, 0.062249243, -0.33997664, 9.749189
159914, 0.019153614, -0.32561144, 9.768343
159922, 0.009576807, -0.33997664, 9.758766
159932, 0.038307227, -0.31603462, 9.792285
159947, 0.019153614, -0.34476504, 9.744401
159952, 0.02873042, -0.34476504, 9.792285
159965, -0.0047884034, -0.35913026, 9.749189
159971, 0.019153614, -0.33997664, 9.739613
159982, 0.04309563, -0.35913026, 9.725247
159998, 0.01436521, -0.35434186, 9.787497
160002, 0.01436521, -0.33997664, 9.734824
160014, 0.033518825, -0.34955344, 9.77792
160021, 0.047884032, -0.35434186, 9.773131
160033, 0.023942016, -0.33518824, 9.773131
160049, 0.019153614, -0.37828386, 9.749189
160053, 0.023942016, -0.35434186, 9.758766
160082, 0.023942016, -0.30645782, 9.763555
160083, 0.023942016, -0.36391866, 9.710882
160084, 0.047884032, -0.33997664, 9.749189
160091, 0.0047884034, -0.34476504, 9.749189
160101, -0.0047884034, -0.34955344, 9.792285
160112, 0.023942016, -0.38307226, 9.749189
160121, 0.02873042, -0.33997664, 9.801862
160131, 0.033518825, -0.36870706, 9.773131
160143, 0.04309563, -0.34955344, 9.830592
160150, 0.04309563, -0.33997664, 9.710882
160162, 0.04309563, -0.33518824, 9.758766
160170, 0.04309563, -0.38307226, 9.763555
160181, 0.019153614, -0.31603462, 9.763555
160190, 0.019153614, -0.33997664, 9.763555
160200, 0.038307227, -0.34476504, 9.782708
160213, 0.038307227, -0.31124622, 9.758766
160220, 0.033518825, -0.35434186, 9.768343
160231, 0.009576807, -0.33518824, 9.749189
160240, 0.01436521, -0.35913026, 9.768343
160252, 0.01436521, -0.33039984, 9.744401
160261, 0.019153614, -0.33518824, 9.801862
160270, 0.01436521, -0.35434186, 9.749189
160280, 0.019153614, -0.34476504, 9.758766
160290, 0.033518825, -0.33039984, 9.763555
160300, 0.02873042, -0.33997664, 9.753978
160311, 0.019153614, -0.34476504, 9.763555
160320, 0.019153614, -0.33997664, 9.763555
160330, 0.06703765, -0.34955344, 9.768343
160348, 0.06703765, -0.35913026, 9.744401
160350, 0.009576807, -0.33518824, 9.773131
160363, 0.01436521, -0.36391866, 9.744401
160370, 0.019153614, -0.31603462, 9.797073
160380, 0.023942016, -0.34476504, 9.773131
160396, 0.0047884034, -0.34955344, 9.768343
160400, 0.04309563, -0.33997664, 9.710882
160412, 0.0047884034, -0.31603462, 9.792285
160420, 0.023942016, -0.35913026, 9.763555
160430, -0.01436521, -0.33518824, 9.749189
160448, 0.062249243, -0.36391866, 9.753978
160450, 0.019153614, -0.34955344, 9.753978
160463, 0.019153614, -0.34955344, 9.763555
160470, 0.019153614, -0.36391866, 9.768343
160480, 0.0047884034, -0.34476504, 9.758766
160492, 0.0047884034, -0.35913026, 9.744401
160500, 0.023942016, -0.36391866, 9.730036
160512, -0.009576807, -0.33518824, 9.768343
160520, 0.019153614, -0.37349546, 9.792285
160530, -0.0047884034, -0.37349546, 9.768343
160545, -0.019153614, -0.34476504, 9.797073
160550, 0.009576807, -0.35913026, 9.758766
160562, 0.01436521, -0.35434186, 9.744401
160570, 0.023942016, -0.34955344, 9.725247
160581, 0.019153614, -0.34476504, 9.797073
160595, 0.009576807, -0.37349546, 9.758766
160600, 0.009576807, -0.33997664, 9.811439
160612, 0.009576807, -0.36391866, 9.744401
160620, 0.033518825, -0.31603462, 9.77792
160630, 0.009576807, -0.33997664, 9.763555
160645, 0.033518825, -0.35434186, 9.782708
160650, 0.0047884034, -0.33997664, 9.730036
160662, 0.033518825, -0.31124622, 9.773131
160670, -0.0047884034, -0.33997664, 9.730036
160680, 0.038307227, -0.34955344, 9.773131
160695, 0.038307227, -0.34476504, 9.77792
160701, 0.038307227, -0.33997664, 9.80665
160714, 0.01436521, -0.35913026, 9.768343
160720, 0.01436521, -0.33997664, 9.77792
160730, 0.019153614, -0.33997664, 9.744401
160749, 0.01436521, -0.33518824, 9.80665
160750, 0.02873042, -0.35434186, 9.763555
160764, 0.02873042, -0.31603462, 9.758766
160772, 0.023942016, -0.34955344, 9.792285
160780, -0.0047884034, -0.33518824, 9.753978
160795, 0.023942016, -0.37828386, 9.758766
160800, -0.009576807, -0.33997664, 9.792285
160811, -0.0047884034, -0.32561144, 9.753978
160820, 0.0047884034, -0.35434186, 9.734824
160830, 0.01436521, -0.34955344, 9.768343
160847, 0.01436521, -0.33997664, 9.758766
160850, -0.019153614, -0.35913026, 9.734824
160861, 0.01436521, -0.35913026, 9.768343
160870, -0.0047884034, -0.34955344, 9.763555
160880, 0.033518825, -0.36870706, 9.730036
160895, 0.01436521, -0.32561144, 9.758766
160900, 0.019153614, -0.34476504, 9.782708
160912, -0.0047884034, -0.36391866, 9.811439
160921, 0.02873042, -0.33039984, 9.797073
160930, -0.0047884034, -0.34955344, 9.763555
160947, -0.0047884034, -0.34955344, 9.734824
160950, 0.019153614, -0.33997664, 9.744401
160962, 0.0047884034, -0.31124622, 9.782708
160970, 0.038307227, -0.35913026, 9.758766
160980, 0.01436521, -0.33997664, 9.77792
160995, 0.019153614, -0.32561144, 9.753978
161000, 0.033518825, -0.33518824, 9.758766
161012, 0.033518825, -0.34476504, 9.758766
161020, -0.0047884034, -0.320823, 9.782708
161031, 0.023942016, -0.34955344, 9.739613
161045, 0.0047884034, -0.32561144, 9.763555
161050, 0.023942016, -0.34955344, 9.744401
161062, 0.0047884034, -0.34476504, 9.773131
161070, 0.009576807, -0.33518824, 9.749189
161080, 0.019153614, -0.34955344, 9.797073
161095, 0.009576807, -0.320823, 9.77792
161100, -0.019153614, -0.33997664, 9.768343
161112, 0.04309563, -0.34955344, 9.749189
161120, 0.047884032, -0.34476504, 9.773131
161130, 0.01436521, -0.31124622, 9.787497
161145, 0.019153614, -0.34955344, 9.768343
161150, 0.0047884034, -0.33518824, 9.768343
161162, 0.019153614, -0.320823, 9.758766
161170, 0.02873042, -0.31603462, 9.768343
161180, 0.023942016, -0.33039984, 9.749189
161195, 0.023942016, -0.32561144, 9.787497
161200, 0.023942016, -0.35434186, 9.730036
161212, 0.019153614, -0.33518824, 9.77792
161220, 0.023942016, -0.31603462, 9.725247
161230, 0.02873042, -0.36870706, 9.773131
161246, 0.019153614, -0.35434186, 9.734824
161250, 0.01436521, -0.33518824, 9.77792
161263, 0.02873042, -0.32561144, 9.749189
161270, 0.0047884034, -0.35434186, 9.768343
161280, 0.023942016, -0.37349546, 9.730036
161295, 0.0047884034, -0.33039984, 9.782708
161300, 0.0047884034, -0.33039984, 9.768343
161313, 0.019153614, -0.34955344, 9.749189
161320, 0.023942016, -0.33997664, 9.763555
161330, 0.009576807, -0.31603462, 9.768343
161346, 0.01436521, -0.32561144, 9.77792
161350, 0.019153614, -0.36870706, 9.758766
161361, 0.01436521, -0.34476504, 9.763555
161370, 0.009576807, -0.33518824, 9.763555
161380, 0.019153614, -0.32561144, 9.763555
161394, 0.009576807, -0.33039984, 9.773131
161400, -0.009576807, -0.34476504, 9.787497
161411, -0.009576807, -0.34476504, 9.763555
161420, 0.02873042, -0.31603462, 9.758766
161430, 0.0047884034, -0.33997664, 9.725247
161445, 0.023942016, -0.34955344, 9.763555
161450, -0.023942016, -0.35913026, 9.749189
161461, 0.04309563, -0.33997664, 9.792285
161470, -0.023942016, -0.35434186, 9.725247
161480, -0.0047884034, -0.31124622, 9.787497
161495, -0.009576807, -0.35434186, 9.768343
161500, 0.01436521, -0.38307226, 9.773131
161511, 0.009576807, -0.36391866, 9.768343
161520, 0.023942016, -0.32561144, 9.773131
161530, 0.05267244, -0.34476504, 9.768343
161544, 0.02873042, -0.34955344, 9.758766
161550, 0.05746084, -0.33039984, 9.768343
161561, 0.05746084, -0.33039984, 9.782708
161570, 0.019153614, -0.36391866, 9.763555
161580, 0.0047884034, -0.33039984, 9.768343
161591, 0.04309563, -0.33039984, 9.787497
161600, -0.009576807, -0.36391866, 9.77792
161611, 0.0047884034, -0.35434186, 9.773131
161620, -0.01436521, -0.31603462, 9.715671
161630, 0.01436521, -0.36870706, 9.77792
161645, 0.01436521, -0.33039984, 9.763555
161650, 0.0047884034, -0.35913026, 9.77792
161661, 0.0047884034, -0.35434186, 9.744401
161670, 0.047884032, -0.40222588, 9.696517
161680, -0.0047884034, -0.33997664, 9.811439
161694, 0.038307227, -0.29209262, 9.768343
161700, -0.0047884034, -0.32561144, 9.782708
161711, 0.02873042, -0.4309563, 9.730036
161720, 0.02873042, -0.33518824, 9.77792
161730, -0.019153614, -0.31603462, 9.763555
161745, -0.009576807, -0.32561144, 9.749189
161750, 0.06703765, -0.35913026, 9.749189
161761, 0.0047884034, -0.35913026, 9.763555
161770, 0.01436521, -0.29209262, 9.811439
161781, -0.02873042, -0.31124622, 9.749189
161794, -0.0047884034, -0.33997664, 9.753978
161800, 0.023942016, -0.36391866, 9.758766
161811, -0.023942016, -0.29209262, 9.792285
161820, 0.05267244, -0.40222588, 9.768343
161836, -0.019153614, -0.34955344, 9.734824
161850, 0.0047884034, -0.30166942, 9.753978
161851, 0.009576807, -0.30166942, 9.816227
161860, 0.033518825, -0.35434186, 9.773131
161870, 0.033518825, -0.38307226, 9.749189
161880, -0.01436521, -0.37828386, 9.758766
161895, -0.01436521, -0.29688102, 9.801862
161900, -0.0047884034, -0.30166942, 9.763555
161910, 0.047884032, -0.3878607, 9.730036
161920, 0.023942016, -0.3878607, 9.763555
161930, 0.009576807, -0.30645782, 9.787497
161943, -0.009576807, -0.30166942, 9.782708
161950, 0.033518825, -0.34955344, 9.768343
161962, 0.0047884034, -0.35434186, 9.749189
161970, 0.023942016, -0.33518824, 9.792285
161980, 0.0047884034, -0.35913026, 9.792285
161994, 0.0047884034, -0.37828386, 9.744401
162000, 0.019153614, -0.31603462, 9.744401
162011, 0.023942016, -0.32561144, 9.768343
162021, 0.023942016, -0.36391866, 9.792285
162030, -0.009576807, -0.3878607, 9.739613
162045, -0.019153614, -0.35434186, 9.773131
162050, -0.019153614, -0.35913026, 9.77792
162061, -0.019153614, -0.33039984, 9.720459
162070, -0.009576807, -0.34955344, 9.730036
162080, 0.023942016, -0.32561144, 9.744401
162094, -0.009576807, -0.34955344, 9.792285
162100, -0.019153614, -0.32561144, 9.749189
162111, 0.033518825, -0.30645782, 9.787497
162120, 0.033518825, -0.34955344, 9.720459
162130, 0.01436521, -0.32561144, 9.773131
162144, 0.01436521, -0.33518824, 9.734824
162150, 0.02873042, -0.32561144, 9.763555
162160, 0.019153614, -0.34955344, 9.77792
162171, 0.019153614, -0.33997664, 9.773131
162180, -0.01436521, -0.33997664, 9.792285
162194, 0.02873042, -0.31603462, 9.744401
162200, 0.009576807, -0.33518824, 9.787497
162211, 0.01436521, -0.35434186, 9.77792
162220, 0.01436521, -0.36870706, 9.753978
162230, 0.0047884034, -0.35434186, 9.749189
162244, -0.009576807, -0.34476504, 9.734824
162250, -0.02873042, -0.33518824, 9.77792
162260, -0.02873042, -0.35434186, 9.782708
162270, -0.02873042, -0.320823, 9.749189
162280, -0.01436521, -0.33518824, 9.77792
162294, 0.0047884034, -0.33997664, 9.720459
162300, -0.009576807, -0.36870706, 9.763555
162311, -0.0047884034, -0.31124622, 9.768343
162320, -0.0047884034, -0.33518824, 9.797073
162330, 0.023942016, -0.34476504, 9.77792
162344, 0.019153614, -0.33518824, 9.792285
162350, -0.01436521, -0.36391866, 9.753978
162360, 0.0047884034, -0.35913026, 9.739613
162377, 0.009576807, -0.36391866, 9.753978
162380, -0.023942016, -0.31124622, 9.797073
162394, 0.038307227, -0.33997664, 9.758766
162400, 0.009576807, -0.34476504, 9.768343
162410, 0.009576807, -0.34476504, 9.730036
162420, 0.01436521, -0.320823, 9.763555
162430, -0.009576807, -0.34476504, 9.753978
162443, -0.019153614, -0.33997664, 9.773131
162450, -0.009576807, -0.33997664, 9.744401
162461, 0.009576807, -0.33039984, 9.792285
162470, 0.023942016, -0.33039984, 9.749189
162480, 0.023942016, -0.32561144, 9.725247
162493, -0.009576807, -0.33997664, 9.768343
162500, -0.009576807, -0.33518824, 9.801862
162510, 0.02873042, -0.33997664, 9.734824
162527, 0.009576807, -0.33039984, 9.782708
162530, 0.047884032, -0.320823, 9.739613
162543, -0.01436521, -0.33518824, 9.758766
162550, -0.0047884034, -0.33518824, 9.80665
162561, -0.0047884034, -0.40222588, 9.768343
162576, -0.0047884034, -0.35913026, 9.782708
162580, 0.0047884034, -0.35434186, 9.739613
162593, 0.0047884034, -0.33997664, 9.763555
162600, 0.009576807, -0.34476504, 9.744401
162610, -0.023942016, -0.34955344, 9.782708
162626, 0.019153614, -0.34955344, 9.753978
162630, -0.019153614, -0.38307226, 9.782708
162643, -0.0047884034, -0.35913026, 9.773131
162650, 0.0047884034, -0.29209262, 9.782708
162660, 0.02873042, -0.33039984, 9.768343
162676, -0.019153614, -0.36391866, 9.763555
162680, 0.0047884034, -0.36391866, 9.782708
162694, -0.023942016, -0.35434186, 9.773131
162700, -0.0047884034, -0.34476504, 9.768343
162710, 0.0047884034, -0.320823, 9.753978
162726, 0.009576807, -0.37349546, 9.77792
162730, 0.01436521, -0.34955344, 9.744401
162743, -0.023942016, -0.33518824, 9.749189
162750, 0.009576807, -0.32561144, 9.730036
162760, -0.009576807, -0.33997664, 9.753978
162777, -0.0047884034, -0.32561144, 9.739613
162780, -0.01436521, -0.33039984, 9.787497
162793, 0.009576807, -0.33997664, 9.763555
162800, 0.0047884034, -0.34955344, 9.758766
162810, 0.0047884034, -0.35913026, 9.792285
162826, 0.0047884034, -0.320823, 9.758766
162830, 0.0047884034, -0.33997664, 9.706094
162843, -0.01436521, -0.33997664, 9.768343
162850, -0.009576807, -0.36391866, 9.768343
162860, 0.01436521, -0.32561144, 9.734824
162876, 0.019153614, -0.35913026, 9.753978
162880, 0.019153614, -0.33997664, 9.768343
162893, 0.023942016, -0.35913026, 9.753978
162900, -0.023942016, -0.32561144, 9.763555
162910, 0.033518825, -0.33039984, 9.739613
162926, -0.009576807, -0.33518824, 9.787497
162930, 0.019153614, -0.37349546, 9.753978
162943, -0.0047884034, -0.34955344, 9.753978
162950, -0.0047884034, -0.36391866, 9.773131
162960, -0.019153614, -0.320823, 9.739613
162976, 0.038307227, -0.33997664, 9.773131
162980, 0.01436521, -0.35434186, 9.734824
162993, -0.019153614, -0.31603462, 9.768343
163000, 0.0047884034, -0.35434186, 9.797073
163011, -0.0047884034, -0.33997664, 9.773131
163026, 0.0047884034, -0.33039984, 9.744401
163030, 0.019153614, -0.31603462, 9.763555
163042, -0.01436521, -0.33997664, 9.763555
163050, -0.01436521, -0.35913026, 9.773131
163061, 0.01436521, -0.33997664, 9.763555
163076, -0.02873042, -0.31603462, 9.730036
163080, 0.033518825, -0.36870706, 9.758766
163092, 0.033518825, -0.33039984, 9.758766
163100, 0.038307227, -0.33997664, 9.739613
163110, -0.023942016, -0.32561144, 9.773131
163126, 0.0047884034, -0.35913026, 9.730036
163130, 0.019153614, -0.37349546, 9.734824
163142, 0.01436521, -0.34476504, 9.758766
163150, -0.0047884034, -0.31603462, 9.739613
163160, -0.0047884034, -0.33518824, 9.730036
163176, 0.009576807, -0.34476504, 9.763555
163180, 0.02873042, -0.33518824, 9.787497
163192, -0.0047884034, -0.34955344, 9.782708
163200, -0.009576807, -0.35434186, 9.782708
163210, -0.01436521, -0.35913026, 9.763555
163226, -0.019153614, -0.32561144, 9.773131
163230, 0.02873042, -0.31603462, 9.77792
163242, 0.019153614, -0.33518824, 9.758766
163250, 0.01436521, -0.34476504, 9.773131
163260, 0.009576807, -0.33997664, 9.758766
163275, 0.0047884034, -0.33518824, 9.768343
163280, -0.009576807, -0.34476504, 9.797073
163292, 0.0047884034, -0.35913026, 9.749189
163300, -0.01436521, -0.30645782, 9.768343
163310, -0.0047884034, -0.33518824, 9.758766
163325, 0.009576807, -0.33039984, 9.782708
163330, 0.0047884034, -0.36870706, 9.734824
163342, -0.019153614, -0.29688102, 9.797073
163351, 0.0047884034, -0.33039984, 9.739613
163360, -0.0047884034, -0.35913026, 9.787497
163376, 0.033518825, -0.35434186, 9.749189
163380, -0.023942016, -0.33518824, 9.792285
163392, 0.023942016, -0.37828386, 9.753978
163400, 0.023942016, -0.35913026, 9.758766
163410, -0.009576807, -0.34476504, 9.730036
163426, -0.02873042, -0.34476504, 9.744401
163430, -0.02873042, -0.35913026, 9.792285
163442, 0.02873042, -0.33518824, 9.763555
163450, 0.009576807, -0.33039984, 9.730036
163460, 0.02873042, -0.34476504, 9.77792
163475, -0.033518825, -0.34476504, 9.758766
163481, -0.0047884034, -0.34955344, 9.763555
163492, -0.02873042, -0.35434186, 9.773131
163500, 0.033518825, -0.36870706, 9.768343
163510, 0.033518825, -0.36391866, 9.734824
163524, 0.019153614, -0.34955344, 9.792285
163530, 0.01436521, -0.33518824, 9.763555
163541, 0.009576807, -0.33997664, 9.768343
163550, -0.0047884034, -0.34955344, 9.753978
163560, -0.01436521, -0.34476504, 9.773131
163576, 0.01436521, -0.35434186, 9.758766
163580, -0.023942016, -0.34955344, 9.782708
163591, -0.01436521, -0.33518824, 9.801862
163600, 0.023942016, -0.33518824, 9.753978
163610, 0.0047884034, -0.34955344, 9.758766
163625, 0.0047884034, -0.34955344, 9.749189
163630, 0.038307227, -0.32561144, 9.787497
163641, 0.023942016, -0.36391866, 9.763555
163650, 0.01436521, -0.34955344, 9.758766
163660, -0.009576807, -0.33518824, 9.758766
163676, 0.023942016, -0.34955344, 9.753978
163680, 0.009576807, -0.320823, 9.768343
163693, -0.023942016, -0.36870706, 9.734824
163700, -0.01436521, -0.34476504, 9.792285
163710, 0.01436521, -0.33997664, 9.763555
163724, 0.033518825, -0.320823, 9.768343
163730, 0.047884032, -0.36391866, 9.792285
163741, -0.033518825, -0.33039984, 9.792285
163750, -0.019153614, -0.36391866, 9.763555
163760, 0.019153614, -0.36391866, 9.758766
163770, 0.009576807, -0.34476504, 9.763555
163780, -0.01436521, -0.32561144, 9.768343
163791, -0.01436521, -0.34476504, 9.734824
163800, 0.009576807, -0.34476504, 9.768343
163810, -0.009576807, -0.36391866, 9.753978
163824, -0.009576807, -0.34955344, 9.744401
163830, -0.019153614, -0.33039984, 9.763555
163841, 0.0047884034, -0.34476504, 9.758766
163850, -0.0047884034, -0.31124622, 9.77792
163860, 0.023942016, -0.34955344, 9.744401
163870, -0.033518825, -0.32561144, 9.77792
163880, -0.019153614, -0.34476504, 9.753978
163893, 0.023942016, -0.34476504, 9.801862
163900, 0.04309563, -0.38307226, 9.749189
163910, 0.0047884034, -0.33997664, 9.787497
163923, 0.009576807, -0.35434186, 9.749189
163930, 0.009576807, -0.35913026, 9.749189
163940, 0.009576807, -0.34955344, 9.763555
163950, 0.023942016, -0.33997664, 9.773131
163960, -0.0047884034, -0.33039984, 9.792285
163974, -0.0047884034, -0.32561144, 9.744401
163980, 0.02873042, -0.33039984, 9.734824
163990, 0.02873042, -0.320823, 9.792285
